time;ax;ay;az;aT
0,0050;-0,8077;0,0422;-0,7959;1,135
0,0050;-0,5126;-0,0684;-1,2847;1,385
0,0060;-0,0684;-0,0480;-1,0223;1,026
0,0160;0,0886;0,0550;-0,5753;0,585
0,0330;-0,1366;0,1344;-0,1943;0,273
0,0690;-0,2214;0,1985;0,2442;0,385
0,0710;0,2986;0,2657;0,3215;0,513
0,0730;0,5390;0,2900;0,2918;0,678
0,0780;0,2471;0,2391;0,3357;0,480
0,0790;0,0233;0,1652;0,1106;0,200
0,0880;-0,1385;-0,0537;-0,2308;0,274
0,0960;-0,3067;-0,2235;-0,0535;0,383
0,1040;-0,4606;-0,3103;0,4664;0,725
0,1170;-0,5060;-0,1484;0,2523;0,585
0,1330;-0,4613;0,0921;-0,1168;0,485
0,1360;-0,2633;0,2126;-0,2159;0,401
0,1470;-0,0635;0,3171;-0,4439;0,549
0,1860;-0,0422;0,2913;0,1917;0,351
0,1890;-0,2899;0,1999;0,9685;1,031
0,1910;-0,5335;-0,0243;0,5101;0,739
0,1930;-0,3799;-0,3346;-0,0720;0,511
0,1960;-0,2247;-0,4529;-0,2764;0,576
0,2100;0,2201;-0,2799;0,0210;0,357
0,2170;0,5716;0,0814;0,2839;0,643
0,2250;0,4035;0,3583;-0,4503;0,703
0,2420;0,2813;0,4224;-0,5040;0,715
0,2460;0,3351;0,4621;-0,3194;0,654
0,2600;0,0763;0,3954;-0,9839;1,063
0,2680;-0,3654;0,3447;-0,8470;0,985
0,2760;-0,4979;0,3597;-0,0425;0,616
0,2920;-0,3043;0,3197;0,1127;0,456
0,3090;0,3959;-0,0346;0,0348;0,399
0,3090;1,1574;-0,2570;0,6103;1,333
0,3250;0,8283;0,0068;-0,0893;0,833
0,3290;1,4006;0,3258;-1,4769;2,061
0,3630;1,4333;0,5319;-2,2199;2,695
0,3640;1,0330;0,9367;-2,7902;3,119
0,3650;0,4745;1,2969;-2,9936;3,297
0,3660;-0,1492;1,3565;-2,5322;2,877
0,3780;-0,4748;1,1046;-1,6723;2,060
0,3880;-0,5102;0,4061;-1,1343;1,308
0,4160;-0,4721;0,1175;-0,9793;1,093
0,4210;-0,1757;0,1653;-0,9860;1,015
0,4220;0,2354;0,4157;-1,0770;1,178
0,4280;0,4620;0,5519;-0,8160;1,088
0,4370;0,6486;0,5450;-0,3724;0,925
0,4470;1,2874;0,4910;-0,4395;1,446
0,4550;2,0010;0,4497;-0,7826;2,195
0,4760;2,5843;0,3804;-1,3225;2,928
0,4770;2,6028;0,2415;-1,7368;3,138
0,4860;1,9938;0,0811;-2,0514;2,862
0,5030;1,3346;-0,1141;-2,1884;2,566
0,5100;0,5254;-0,4207;-1,7550;1,880
0,5180;0,2882;-0,6975;-1,0180;1,267
0,5420;0,7882;-0,9578;-0,4188;1,309
0,5440;1,9998;-0,9207;-1,6039;2,724
0,5450;2,2335;-0,7132;-3,2920;4,042
0,5560;1,2252;-0,1891;-5,0012;5,153
0,5660;-0,6528;0,1940;-6,0244;6,063
0,5870;-1,7804;0,0586;-5,9722;6,232
0,5880;-3,0143;0,4326;-5,4087;6,207
0,5960;-0,1700;0,0540;-5,0731;5,076
0,6050;0,6653;-0,6085;-4,5820;4,670
0,6270;0,2965;-1,4975;-3,7552;4,054
0,6310;-0,5641;-1,9861;-3,3024;3,895
0,6380;-0,6061;-1,9421;-2,6091;3,309
0,6510;0,0274;-1,4362;-2,0017;2,464
0,6550;0,5462;-1,4464;-1,8084;2,379
0,6710;0,7316;-1,6473;-1,4105;2,289
0,6760;3,0211;-1,7095;-0,7663;3,555
0,6920;3,8079;-1,6267;-1,1423;4,296
0,6960;3,8306;-2,0818;-2,3864;4,970
0,7130;-1,1990;-0,6444;-8,9866;9,089
0,7150;0,0031;-0,5908;-7,0909;7,115
0,7240;2,6264;-2,1625;-3,8352;5,127
0,7390;1,6015;-1,8827;-2,7222;3,677
0,7810;-0,6498;-2,7898;-2,2061;3,616
0,7820;-1,0816;-3,5082;-0,2991;3,683
0,7830;-0,3551;-3,3128;0,0935;3,333
0,7840;-0,8005;-2,8124;-1,4189;3,250
0,7850;-0,1841;-2,8223;-2,1998;3,583
0,7970;1,1065;-2,2067;-2,0381;3,201
0,8070;2,9595;-1,5232;-2,3002;4,046
0,8160;2,9906;-1,1284;-1,6642;3,604
0,8440;1,8210;-1,3473;-1,1166;2,525
0,8500;1,1054;-2,7209;-0,1441;2,940
0,8510;0,6793;-2,4612;0,1338;2,557
0,8560;-0,4692;-2,3298;1,1912;2,658
0,8700;-0,6180;-2,4423;0,4289;2,556
0,8770;-1,1369;-2,6377;-0,2670;2,885
0,8840;-0,9925;-2,9664;-0,3871;3,152
0,9060;0,4955;-2,4941;-0,7803;2,660
0,9070;0,9713;-1,4267;-0,8343;1,917
0,9150;1,9899;-1,0106;0,5258;2,293
0,9340;2,8872;-0,9275;1,7922;3,523
0,9450;2,3029;-0,7117;2,2071;3,268
0,9470;1,0343;-1,0264;2,7382;3,102
0,9660;0,1170;-1,5444;1,6620;2,272
0,9670;-0,0144;-1,3066;-0,3415;1,351
0,9750;-0,3545;-0,9000;-0,8604;1,295
0,9870;1,3730;-0,1795;-0,7651;1,582
0,9970;2,4019;0,5981;0,0440;2,476
1,0050;3,6213;0,9833;1,5925;4,076
1,0340;3,9247;1,1660;2,8958;5,015
1,0350;3,7692;1,3133;3,9268;5,599
1,0360;3,1700;1,2856;4,0330;5,288
1,0560;4,7164;-0,3317;3,4347;5,844
1,0620;3,0179;0,5025;3,0848;4,345
1,0660;-0,2655;2,6439;2,4210;3,595
1,0750;-2,1416;3,3513;2,3690;4,629
1,0850;-1,7022;2,4328;1,4230;3,293
1,1010;0,7004;1,0807;1,6352;2,081
1,1060;1,6771;0,9997;2,7146;3,344
1,1150;1,3594;1,4948;3,0808;3,684
1,1300;1,3150;1,8324;3,5171;4,178
1,1350;2,0584;2,3295;3,5440;4,714
1,1470;2,4111;2,7326;2,9678;4,700
1,1550;3,1864;3,2447;2,1729;5,040
1,1680;4,2117;4,1208;1,5688;6,098
1,1760;4,2569;4,7134;1,8936;6,627
1,1860;4,0845;5,2422;2,4945;7,098
1,1980;3,6316;5,6906;2,7013;7,271
1,2050;3,1471;6,1582;2,7005;7,424
1,2170;3,0888;6,6424;3,1611;7,978
1,2260;3,6230;7,1539;4,1781;9,042
1,2380;3,9058;7,5006;4,6786;9,665
1,2460;3,7536;7,9071;4,8570;10,010
1,2760;3,2404;8,2144;4,6348;9,973
1,2790;2,4920;8,4138;4,0778;9,676
1,2800;1,9650;8,3392;3,6540;9,314
1,2880;1,2955;8,2458;3,4467;9,031
1,2960;1,4518;8,3504;3,7908;9,285
1,3050;3,1533;8,4623;5,0735;10,358
1,3180;4,4416;8,1989;5,7870;10,974
1,3250;4,5016;7,8355;5,2574;10,455
1,3360;3,6848;7,4174;3,8453;9,131
1,3470;3,0689;6,7662;2,1504;7,735
1,3560;2,8310;6,2992;1,6247;7,095
1,3670;2,6758;5,8649;1,6223;6,647
1,3750;2,6215;5,4731;1,9356;6,370
1,4050;2,5996;5,0467;1,8986;5,986
1,4070;2,3464;4,5905;1,5950;5,396
1,4080;2,3206;4,2366;1,5004;5,058
1,4190;2,4580;3,8904;1,5712;4,863
1,4240;2,2678;3,4806;1,3579;4,371
1,4400;1,8733;3,0402;0,8730;3,676
1,4430;1,8508;2,5821;0,7048;3,254
1,4850;1,9433;1,9946;0,9988;2,958
1,4870;1,8418;1,5854;1,1806;2,702
1,4890;1,6640;1,4173;1,1539;2,472
1,4920;1,5082;1,0500;0,9737;2,080
1,4960;1,2510;0,5659;0,4563;1,447
1,5050;0,9439;0,1646;-0,1380;0,968
1,5170;0,7360;-0,1264;-0,4734;0,884
1,5270;0,7759;-0,5402;-0,5277;1,083
1,5380;0,8948;-0,9280;-0,3790;1,344
1,5450;0,8968;-1,2643;-0,1904;1,562
1,5720;0,8256;-1,6358;-0,1518;1,839
1,5730;0,6074;-1,9399;-0,3083;2,056
1,5750;0,4534;-2,3181;-0,4997;2,414
1,5860;0,4156;-2,4963;-0,4771;2,575
1,5940;0,6143;-2,4548;-0,2463;2,542
1,6040;0,6620;-2,5299;-0,3459;2,638
1,6430;0,1460;-2,7201;-0,8929;2,867
1,6530;-0,0527;-3,0738;-1,3155;3,344
1,6620;0,3177;-3,4486;-1,2203;3,672
1,6680;1,5351;-3,0938;-0,3228;3,469
1,6710;0,0498;-3,7039;-0,9339;3,820
1,6730;-1,7831;-4,5673;-1,2152;5,051
1,6750;-2,3052;-4,2141;-0,2897;4,812
1,6850;-2,1251;-3,7927;0,1336;4,350
1,6960;-1,2719;-4,0343;0,2623;4,238
1,7060;-0,9240;-4,1722;0,0616;4,274
1,7210;-0,9780;-4,0093;-0,2207;4,133
1,7250;-0,9985;-3,9502;-0,3746;4,092
1,7650;-0,7277;-4,0054;-0,3508;4,086
1,7690;-0,4181;-4,2289;-0,2667;4,258
1,7700;-0,8121;-4,2401;-0,1159;4,319
1,7710;-1,5960;-4,2408;-0,0239;4,531
1,7740;-1,3468;-4,3687;0,0106;4,572
1,7870;-0,0996;-4,3594;0,6585;4,410
1,7940;0,5421;-4,3472;0,7670;4,448
1,8060;1,2998;-4,8234;0,5303;5,024
1,8380;1,3639;-5,3148;-0,2588;5,493
1,8430;0,3469;-5,2385;-1,2564;5,398
1,8440;-0,1925;-4,6582;-1,6195;4,935
1,8470;-0,5763;-3,7885;-1,5593;4,137
1,8570;-1,1680;-3,2886;-1,2589;3,710
1,8670;-1,6614;-3,0611;-0,9879;3,620
1,8740;-2,1130;-2,9503;-0,7105;3,698
1,8920;-2,6394;-2,8210;-0,6921;3,925
1,8980;-2,4078;-2,6134;-0,5330;3,593
1,9050;-0,0886;-1,8235;-0,4296;1,876
1,9140;-0,6863;-3,0808;0,0304;3,156
1,9250;-1,0576;-3,6135;0,3911;3,785
1,9560;-0,0640;-2,9954;0,7369;3,085
1,9570;-0,0250;-2,5476;0,3954;2,578
1,9570;0,2558;-2,3239;-0,0479;2,338
1,9640;0,9285;-2,1191;-0,3648;2,342
1,9760;1,0605;-1,4861;-0,6012;1,922
1,9850;0,8756;-1,0223;1,1624;1,778
1,9950;-0,0288;-0,0079;-0,3121;0,314
2,0120;-0,2884;0,5027;-1,5354;1,641
2,0160;-0,3158;0,4197;-1,4021;1,497
2,0280;0,0385;0,6141;-1,0494;1,217
2,0520;0,0301;0,8870;-0,3340;0,948
2,0520;-0,1524;0,9955;0,4486;1,103
2,0570;-0,3628;1,1580;1,0331;1,594
2,0680;-0,4786;1,3660;1,6260;2,177
2,0750;-0,4969;1,4690;1,9303;2,476
2,0850;-0,2804;1,7090;2,3495;2,919
2,0950;0,1850;1,9465;2,6402;3,285
2,1050;0,3788;2,1388;2,5739;3,368
2,1160;0,1042;2,4132;2,1903;3,261
2,1270;-0,1615;2,8323;1,6731;3,293
2,1370;0,0361;3,1299;1,4766;3,461
2,1510;0,4319;3,2906;1,4226;3,611
2,1550;1,0116;3,4567;1,5741;3,931
2,1650;1,3588;3,7060;1,7798;4,330
2,2020;1,3563;4,0348;1,9370;4,677
2,2080;1,3952;4,4183;1,8219;4,979
2,2100;1,9186;4,6431;1,8273;5,346
2,2110;2,4481;4,8499;1,9320;5,766
2,2160;3,0059;5,3417;2,0778;6,472
2,2300;3,7258;5,8328;2,2990;7,293
2,2370;4,1840;6,4005;2,3004;7,985
2,2470;4,1427;6,8857;1,7593;8,226
2,2560;3,9852;7,1866;1,3203;8,323
2,2660;3,7716;7,4211;0,7282;8,356
2,2750;3,5913;7,5971;0,7231;8,434
2,3200;3,3917;7,6800;1,2563;8,489
2,3270;3,3492;7,7975;1,8328;8,682
2,3290;3,3187;8,1356;2,5125;9,139
2,3360;3,3055;8,5184;3,0682;9,639
2,3380;3,5104;8,8952;3,6593;10,239
2,3430;4,4135;9,1980;4,0951;10,993
2,3480;5,5588;9,5121;4,4559;11,884
2,3560;6,0181;9,7520;4,3547;12,259
2,3670;6,5991;9,7999;3,8812;12,436
2,3750;7,3501;9,4924;3,5587;12,522
2,3930;8,2722;8,9947;3,5718;12,732
2,3940;8,6174;8,8838;4,1177;13,044
2,4040;8,7690;9,0795;4,4707;13,391
2,4230;8,7651;9,5173;4,3366;13,646
2,4320;8,8487;10,1067;3,8350;13,970
2,4360;8,9217;10,4008;3,5263;14,150
2,4620;8,3248;10,4997;3,2001;13,776
2,4630;7,1864;10,2330;2,8119;12,817
2,4660;6,2537;9,7096;2,5025;11,817
2,4770;5,5639;8,9447;2,4961;10,826
2,4880;5,3714;7,8669;2,7462;9,914
2,4960;5,3958;7,0938;3,0923;9,434
2,5100;5,6646;6,1245;3,8241;9,177
2,5150;5,7822;5,3815;4,3242;9,005
2,5400;5,5057;4,8115;4,4901;8,580
2,5470;5,2280;4,4140;4,2756;8,068
2,5490;5,1701;4,0763;3,5133;7,463
2,5560;5,1386;3,8327;2,8551;7,018
2,5640;5,0153;3,5645;2,0232;6,477
2,5760;5,2029;3,3834;1,4822;6,381
2,5880;5,5476;3,1900;1,1569;6,503
2,5950;5,4696;2,9466;1,0465;6,300
2,6080;5,0517;2,5941;0,8359;5,740
2,6160;4,6754;2,1131;0,6366;5,170
2,6280;4,2241;1,5649;0,5137;4,534
2,6700;3,7461;1,0352;0,6754;3,945
2,6770;3,0685;0,6164;1,0180;3,291
2,6790;2,5291;0,3064;1,4733;2,943
2,6810;2,2408;-0,2380;1,7957;2,881
2,6820;2,2876;-0,7350;2,0494;3,158
2,6860;2,3893;-1,1307;2,2955;3,501
2,6960;2,3211;-1,5437;2,4389;3,704
2,7120;2,1407;-1,9968;2,3857;3,776
2,7150;1,7410;-2,4712;2,3554;3,832
2,7390;1,0173;-2,8728;2,3885;3,872
2,7390;0,7144;-3,2506;2,5084;4,168
2,7450;0,6283;-3,6390;2,5879;4,509
2,7550;0,5306;-4,0014;2,6927;4,852
2,7640;0,5306;-4,3329;2,8038;5,188
2,7760;0,5408;-4,6142;2,9457;5,501
2,7890;0,6470;-4,8934;2,9815;5,767
2,7960;0,3919;-5,1891;2,9125;5,963
2,8040;-0,1360;-5,4230;2,6729;6,047
2,8160;-0,5149;-5,6160;2,4123;6,134
2,8300;-0,9316;-5,8035;2,2680;6,300
2,8370;-1,2369;-5,9628;2,1970;6,474
2,8660;-1,3952;-6,1189;2,1155;6,623
2,8680;-1,3288;-6,1986;1,9680;6,638
2,8710;-1,1703;-6,1771;1,6973;6,512
2,8770;-1,2373;-6,0629;1,3871;6,341
2,8860;-1,3105;-6,1812;0,9212;6,385
2,8970;-1,4921;-6,6093;0,2261;6,779
2,9110;-2,1225;-7,1068;-0,4030;7,428
2,9190;-2,7146;-7,2126;-0,6256;7,732
2,9250;-3,2272;-7,2748;-0,5001;7,974
2,9430;-3,1131;-7,6714;-0,2368;8,282
2,9460;-2,5301;-8,4130;-0,1704;8,787
2,9560;-2,0785;-9,0014;0,0242;9,238
2,9660;-1,8842;-8,8032;0,2245;9,005
2,9760;-2,1438;-8,1510;0,3504;8,436
2,9840;-2,7240;-7,0421;0,5640;7,572
2,9980;-3,3140;-5,7521;0,8740;6,696
3,0070;-3,4098;-5,0063;1,3264;6,201
3,0150;-3,5417;-4,6789;1,6921;6,107
3,0290;-3,3581;-4,5877;1,5378;5,890
3,0610;-3,1369;-4,5559;1,0621;5,632
3,0650;-2,6137;-4,5690;0,4787;5,285
3,0660;-2,0661;-4,5237;0,1583;4,976
3,0680;-1,4552;-4,4235;0,0391;4,657
3,0780;-0,9713;-4,2300;0,1633;4,343
3,0900;-0,3234;-3,9629;0,4814;4,005
3,0990;0,1855;-3,6459;0,7078;3,719
3,1060;0,7367;-3,1563;0,8125;3,341
3,1180;1,2025;-2,4936;0,6204;2,837
3,1270;1,3661;-1,9010;0,1409;2,345
3,1370;1,2939;-1,2945;-0,6221;1,933
3,1590;1,0471;-0,7230;-1,3875;1,883
3,1590;0,8489;-0,3444;-1,8216;2,039
3,1660;0,7152;-0,0442;-2,1341;2,251
3,1780;0,7032;0,1284;-2,0770;2,197
3,1850;1,1406;0,3437;-1,5827;1,981
3,1990;1,6348;0,4986;-0,6951;1,845
3,2090;1,8768;0,7283;0,3601;2,045
3,2170;2,1360;1,1005;0,9238;2,574
3,2310;2,4379;1,4452;1,4309;3,175
3,2410;2,5972;1,8114;1,8324;3,658
3,2480;2,8401;2,1289;2,0584;4,103
3,2570;3,3258;2,5007;2,2914;4,750
3,2700;4,0601;2,9207;2,6942;5,681
3,2780;4,7488;3,3964;3,0597;6,592
3,2860;5,6574;4,0564;3,5109;7,797
3,2990;6,2606;4,6657;3,8314;8,697
3,3130;6,8558;5,4581;3,9098;9,596
3,3180;7,3744;6,2240;4,0073;10,449
3,3280;7,8625;7,1988;4,1551;11,441
3,3490;7,8978;7,9037;4,2846;11,967
3,3520;7,9455;8,7449;4,3678;12,597
3,3580;8,0243;9,4058;4,4567;13,142
3,3680;7,9747;10,0429;4,5295;13,600
3,3780;8,0184;10,5174;4,6433;14,017
3,3880;7,8769;11,0868;4,7343;14,401
3,3970;7,9660;11,4894;4,7448;14,764
3,4080;8,1631;11,7579;4,8008;15,097
3,4160;7,8579;11,9595;4,5790;15,025
3,4330;7,1985;12,0986;4,1561;14,679
3,4420;6,5495;12,0581;3,6376;14,196
3,4510;6,2825;11,7523;3,0427;13,669
3,4560;6,3593;11,5672;2,8101;13,496
3,4770;6,5283;11,3457;2,7560;13,377
3,4800;7,1552;11,0983;3,0927;13,562
3,4860;8,2128;10,8482;3,5715;14,067
3,4970;9,6439;10,2924;3,9556;14,649
3,5090;10,7500;9,9181;4,3858;15,270
3,5170;11,0997;9,9779;4,8455;15,692
3,5280;11,2385;10,3280;5,5014;16,225
3,5360;10,6547;10,8296;5,5978;16,191
3,5470;9,4462;11,5460;5,1846;15,793
3,5600;8,3119;11,9747;4,8912;15,375
3,5780;7,3341;12,0336;4,7220;14,863
3,5790;7,0495;11,7092;4,7417;14,467
3,5860;6,8486;10,8843;4,8057;13,728
3,5960;6,7671;9,9405;4,8671;12,973
3,6060;6,8441;8,8987;5,1545;12,353
3,6200;6,7898;8,0277;5,4104;11,824
3,6290;6,4685;7,1300;5,7868;11,232
3,6380;6,2546;6,7239;6,0091;10,974
3,6690;5,8828;6,2969;6,1358;10,579
3,6700;5,5800;6,0009;5,8505;10,069
3,6710;5,4696;5,7979;5,2197;9,528
3,6770;5,4966;5,6534;4,3996;9,029
3,6890;5,4549;5,4941;3,5025;8,498
3,6980;5,4012;5,3161;2,7249;8,054
3,7050;5,3325;5,0553;1,8714;7,582
3,7200;5,2980;4,8566;1,0744;7,267
3,7410;5,2321;4,6997;0,4894;7,050
3,7420;5,0663;4,4970;-0,0911;6,775
3,7480;4,8298;4,2778;-0,5626;6,476
3,7610;4,6955;4,0473;-0,6925;6,238
3,7660;4,6092;3,7761;-0,5825;5,987
3,7780;4,4716;3,4248;-0,3628;5,644
3,7870;4,1202;3,0074;-0,0362;5,101
3,7980;3,8813;2,5100;0,2534;4,629
3,8160;3,4712;1,8985;0,7298;4,023
3,8200;3,1648;1,4140;1,0105;3,611
3,8410;2,9740;0,8676;1,3043;3,361
3,8440;2,7376;0,3405;1,6338;3,206
3,8470;2,4801;-0,0825;2,1290;3,270
3,8810;2,1976;-0,4673;2,4383;3,316
3,8820;1,7893;-0,7975;2,4103;3,106
3,8830;1,4711;-1,1418;2,3193;2,974
3,8870;0,9889;-1,4820;2,2813;2,895
3,8970;0,6279;-1,7937;2,2947;2,979
3,9070;0,2366;-2,1159;2,3436;3,166
3,9170;-0,1137;-2,3969;2,4329;3,417
3,9410;-0,2392;-2,6530;2,6539;3,760
3,9510;-0,3414;-2,9165;2,9609;4,170
3,9520;-0,5176;-3,1645;3,2568;4,570
3,9580;-0,6328;-3,3600;3,4447;4,853
3,9660;-0,8463;-3,4906;3,5332;5,038
3,9770;-1,1574;-3,4818;3,4580;5,042
3,9870;-1,3184;-3,3203;3,0664;4,708
4,0030;-1,2750;-3,3492;2,6578;4,462
4,0170;-1,1238;-3,4472;2,1579;4,219
4,0190;-1,0904;-3,5265;1,5109;3,989
4,0290;-1,3377;-3,5402;0,9703;3,907
4,0370;-1,7933;-3,6339;0,4596;4,078
4,0550;-1,6404;-4,1497;0,1307;4,464
4,0620;-1,2194;-4,8253;-0,0573;4,977
4,0670;-1,0869;-5,6847;-0,1110;5,789
4,0780;-1,6555;-5,9356;0,0322;6,162
4,0880;-2,8984;-5,5157;0,2139;6,235
4,1000;-4,1328;-4,7315;0,3467;6,292
4,1070;-5,1330;-3,5730;0,6315;6,286
4,1220;-5,1717;-2,8883;0,8588;5,986
4,1300;-4,5311;-2,4545;1,0849;5,266
4,1370;-3,8700;-2,4385;1,0682;4,697
4,1470;-3,3875;-2,5890;0,7173;4,323
4,1580;-3,0992;-2,7175;0,1470;4,124
4,1670;-3,0070;-2,8553;-0,6433;4,196
4,1780;-2,8808;-2,8156;-1,1320;4,184
4,1850;-2,6154;-2,6585;-1,4229;3,992
4,1980;-2,2725;-2,4988;-1,5268;3,707
4,2050;-1,9470;-2,2641;-1,4920;3,338
4,2200;-1,7594;-1,9127;-1,4487;2,975
4,2350;-1,7033;-1,4690;-1,4856;2,696
4,2390;-1,6231;-1,0712;-1,5739;2,502
4,2660;-1,5962;-0,7066;-1,7117;2,445
4,2710;-1,5153;-0,4475;-1,8888;2,463
4,2730;-1,4880;-0,2178;-2,0527;2,545
4,2790;-1,2856;-0,0107;-2,0899;2,454
4,2890;-0,7872;0,2192;-2,0516;2,208
4,2990;-0,5438;0,3652;-1,9778;2,083
4,3060;-0,4775;0,4386;-1,9092;2,016
4,3160;-0,7083;0,4940;-1,7215;1,926
4,3340;-0,8855;0,6124;-1,1359;1,565
4,3400;-0,9138;0,7622;-0,6034;1,334
4,3670;-0,5058;0,8754;-0,1264;1,019
4,3720;0,0460;0,9717;0,1672;0,987
4,3730;1,0050;1,0917;0,6310;1,612
4,3780;2,1261;1,3189;1,1331;2,747
4,3880;3,2353;1,6123;1,6193;3,961
4,3990;4,0507;1,9092;1,8214;4,834
4,4090;4,9186;2,3074;1,8137;5,728
4,4220;5,3443;2,7533;1,8393;6,287
4,4270;5,8009;3,3497;1,9528;6,977
4,4370;6,3278;4,0497;2,2264;7,836
4,4470;6,7684;4,6764;2,6493;8,643
4,4620;7,2104;5,4103;3,1306;9,543
4,4680;7,7828;6,3145;3,5538;10,634
4,4810;8,2444;7,1234;3,8679;11,562
4,4880;8,6139;7,9829;4,1272;12,448
4,4990;9,1142;8,9329;4,1820;13,430
4,5090;9,5970;9,7123;4,1115;14,260
4,5180;9,8495;10,4638;3,9679;14,908
4,5310;9,9737;11,1632;3,7290;15,427
4,5420;10,0097;11,5955;3,5381;15,722
4,5470;9,9381;11,9187;3,1975;15,844
4,5580;10,2901;12,1179;3,1538;16,207
4,5660;10,8451;12,0801;3,2295;16,552
4,5800;11,1981;11,9159;3,1237;16,648
4,5890;11,3635;11,5785;2,9190;16,484
4,5990;11,3475;11,3631;2,8548;16,311
4,6070;11,0906;11,0784;2,6995;15,907
4,6190;10,9368;10,7383;2,5185;15,533
4,6280;11,0040;10,1003;2,4745;15,140
4,6430;11,0463;9,5491;2,5594;14,824
4,6910;10,7732;9,1914;2,9158;14,458
4,7000;10,1791;9,2402;3,3373;14,147
4,7020;9,0482;9,7733;3,7507;13,837
4,7040;7,8632;10,4076;3,7423;13,570
4,7070;6,7072;10,8947;3,5231;13,270
4,7090;5,6237;11,1230;3,2269;12,875
4,7110;5,0996;11,0591;3,1808;12,587
4,7220;5,0151;10,8308;3,3072;12,385
4,7280;5,1739;10,2614;3,4449;11,997
4,7390;5,4296;9,7014;3,4268;11,634
4,7470;5,7133;9,0238;3,4059;11,210
4,7570;5,9568;8,3463;3,4282;10,812
4,7710;6,3756;7,8162;3,6526;10,728
4,7770;6,5547;7,5251;3,7120;10,648
4,8150;6,6691;7,3315;3,7462;10,595
4,8210;6,7085;7,2510;3,5928;10,511
4,8240;6,6654;7,2706;3,2280;10,378
4,8260;6,6658;7,3314;2,6808;10,265
4,8290;6,5193;7,3953;1,7394;10,011
4,8410;6,3912;7,3505;0,9830;9,790
4,8500;6,4154;7,2645;0,3171;9,697
4,8620;6,4560;7,1457;-0,0262;9,630
4,8690;6,5397;6,9641;-0,0861;9,554
4,8800;6,5317;6,6853;-0,0900;9,347
4,9030;6,2619;6,3344;-0,0474;8,907
4,9040;5,9477;5,9654;0,0102;8,424
4,9080;5,5144;5,5744;0,2775;7,846
4,9180;5,1048;5,1113;0,5411;7,244
4,9260;4,7829;4,6028;0,7857;6,684
4,9390;4,5000;4,0900;1,0160;6,165
4,9710;4,0949;3,5109;1,2553;5,538
4,9720;3,8402;3,0680;1,4474;5,124
4,9730;3,6351;2,6119;1,6970;4,787
4,9780;3,3182;2,1198;1,9289;4,385
4,9900;3,0050;1,7036;2,1053;4,045
4,9980;2,7863;1,2837;2,3109;3,841
5,0090;2,3447;0,8848;2,4757;3,523
5,0170;1,8605;0,4955;2,4015;3,078
5,0270;1,2335;0,1691;2,2569;2,578
5,0400;0,6299;-0,1518;2,0842;2,183
5,0510;0,1941;-0,4753;1,9347;2,002
5,0590;-0,1672;-0,8385;1,7551;1,952
5,0710;-0,5322;-1,1998;1,6864;2,137
5,0770;-0,7571;-1,4583;1,7278;2,384
5,0870;-0,8968;-1,6148;1,8567;2,619
5,1000;-0,9719;-1,6794;1,9294;2,736
5,1060;-1,0477;-1,7610;1,9261;2,812
5,1180;-1,1888;-1,8024;1,7371;2,771
5,1310;-1,3270;-1,7673;1,3984;2,615
5,1430;-1,2958;-1,8533;1,0792;2,506
5,1480;-1,2755;-1,9863;0,7600;2,480
5,1570;-1,3751;-2,1054;0,4458;2,554
5,1740;-1,7006;-2,2456;0,0203;2,817
5,1790;-1,9143;-2,5654;-0,3859;3,224
5,1900;-1,5851;-3,4855;-0,8499;3,922
5,2000;-1,4373;-4,2865;-1,0828;4,649
5,2060;-1,5195;-4,8490;-1,0670;5,192
5,2180;-2,1252;-4,7433;-0,7296;5,249
5,2420;-3,1065;-4,1671;-0,3000;5,206
5,2470;-4,1985;-3,0669;0,2321;5,205
5,2530;-4,8261;-1,7882;0,8318;5,214
5,2620;-4,7966;-1,2115;1,0273;5,053
5,2670;-4,3441;-1,0266;0,8222;4,539
5,2770;-3,4755;-1,0463;0,3679;3,648
5,2880;-2,7048;-0,9682;0,0762;2,874
5,2960;-2,0077;-0,8966;-0,4072;2,236
5,3080;-1,3174;-0,8768;-1,1562;1,960
5,3180;-0,9437;-0,8753;-1,6652;2,105
5,3260;-0,6931;-0,8601;-2,0270;2,308
5,3420;-0,5813;-0,7162;-2,0550;2,253
5,3490;-0,7826;-0,4329;-1,8074;2,017
5,3700;-1,0548;-0,0296;-1,5102;1,842
5,3730;-1,2370;0,3904;-1,2792;1,822
5,3780;-1,2282;0,6753;-1,3194;1,925
5,3880;-1,1935;0,9006;-1,5680;2,167
5,3970;-1,1332;1,1439;-1,8853;2,479
5,4060;-1,0063;1,4026;-2,1010;2,719
5,4230;-0,8389;1,6667;-2,2246;2,904
5,4290;-0,4764;1,8009;-2,2263;2,903
5,4400;-0,2579;1,9316;-2,0167;2,804
5,4530;-0,1751;2,0417;-1,4703;2,522
5,4580;-0,3451;2,1351;-1,0429;2,401
5,4680;-0,5652;2,1706;-0,8158;2,387
5,4770;-0,6346;2,2761;-0,5130;2,418
5,4900;-0,5245;2,3609;0,1077;2,421
5,5000;-0,1715;2,4486;0,5680;2,519
5,5090;0,4312;2,5309;0,9854;2,750
5,5200;1,3161;2,6996;1,4177;3,321
5,5260;2,0937;2,9459;1,7774;4,028
5,5400;2,9082;3,2360;2,1107;4,836
5,5510;3,7458;3,5382;2,3287;5,654
5,5700;4,3632;3,8385;2,3583;6,272
5,5760;5,0332;4,2444;2,2299;6,951
5,5780;5,5623;4,6979;1,9181;7,529
5,5860;5,9881;5,1536;1,7039;8,082
5,5970;6,4912;5,7235;1,6859;8,817
5,6140;7,0597;6,3591;1,8510;9,680
5,6280;7,5579;6,8314;2,0535;10,393
5,6300;8,1727;7,4852;2,3787;11,335
5,6410;8,8347;8,1418;2,7943;12,335
5,6480;9,3297;8,9087;3,1820;13,287
5,6810;9,4971;9,5580;3,1590;13,839
5,6860;9,4305;10,2531;2,8497;14,219
5,6870;9,3607;10,7105;2,6004;14,460
5,6880;9,4039;11,1618;2,4217;14,795
5,7000;9,6678;11,3549;2,3922;15,104
5,7060;9,9734;11,3451;2,3307;15,284
5,7290;10,1800;11,2593;2,3953;15,367
5,7330;10,4120;11,1702;2,7356;15,513
5,7470;10,6105;11,1416;3,0218;15,680
5,7500;10,7690;10,9973;3,1663;15,714
5,7660;11,3933;10,6313;3,0619;15,881
5,7770;12,0492;10,0119;3,0678;15,963
5,7870;12,2272;9,4205;3,2091;15,765
5,7960;11,5823;9,1310;3,5605;15,172
5,8000;10,5495;9,2557;3,7649;14,531
5,8110;8,9963;9,6654;3,7535;13,727
5,8250;7,1664;10,3231;3,3471;13,005
5,8300;5,7800;10,7470;3,1140;12,594
5,8410;4,8323;10,8843;2,9222;12,262
5,8490;4,2862;10,5173;2,8090;11,699
5,8580;4,1357;10,0767;2,7655;11,238
5,8660;4,2420;9,4910;2,9873;10,817
5,8810;4,5749;8,8866;3,2868;10,522
5,8880;4,9428;8,2193;3,6720;10,270
5,8970;5,1481;7,7366;3,8145;10,045
5,9080;5,0444;7,3420;3,7139;9,651
5,9220;4,8495;7,2062;3,4276;9,338
5,9350;4,6237;7,2778;3,0561;9,148
5,9380;4,5719;7,4262;2,6982;9,129
5,9570;4,7787;7,6855;2,1410;9,300
5,9600;4,9419;7,7411;1,6828;9,337
5,9690;5,2105;7,8594;1,1246;9,497
5,9780;5,3927;7,8587;0,6883;9,556
5,9920;5,7247;7,8609;0,2761;9,728
5,9980;6,1007;7,7583;0,0368;9,870
6,0100;6,2684;7,5943;-0,0693;9,847
6,0170;6,3106;7,3543;-0,2711;9,695
6,0370;6,0703;6,9227;-0,3973;9,216
6,0420;5,7351;6,5008;-0,3071;8,674
6,0510;5,4662;6,0595;0,0940;8,161
6,0610;5,1564;5,5523;0,6256;7,603
6,0660;4,8458;4,9649;0,9827;7,007
6,0770;4,5021;4,3011;1,2488;6,350
6,0890;4,2071;3,5980;1,5541;5,750
6,0970;3,9680;3,1202;1,8878;5,389
6,1070;3,6440;2,5103;2,2432;4,961
6,1160;3,2369;1,9389;2,5599;4,560
6,1280;2,8060;1,4195;2,8569;4,249
6,1470;2,3698;0,9565;3,0963;4,015
6,1500;1,5996;0,5217;3,1869;3,604
6,1750;0,8753;0,2420;3,1388;3,267
6,1760;0,1977;-0,0045;2,9438;2,950
6,1790;-0,2723;-0,2767;2,7357;2,763
6,1890;-0,5474;-0,5479;2,5073;2,624
6,1980;-0,7092;-0,7919;2,3781;2,605
6,2090;-0,8684;-1,1342;2,2364;2,654
6,2180;-1,0208;-1,5428;2,0036;2,727
6,2280;-1,3078;-1,9093;1,6808;2,860
6,2580;-1,6694;-2,0918;1,3221;2,985
6,2620;-2,0113;-2,1726;1,0060;3,127
6,2630;-2,1459;-2,4077;0,6811;3,296
6,2680;-2,1645;-2,6929;0,3573;3,473
6,2780;-2,2780;-2,8937;0,1051;3,684
6,2890;-2,4560;-2,9735;-0,1746;3,861
6,2970;-2,5673;-3,0429;-0,4875;4,011
6,3090;-2,1810;-3,3934;-0,7102;4,096
6,3180;-1,1564;-4,1311;-0,8784;4,379
6,3300;-0,2832;-4,9503;-0,7810;5,020
6,3470;-0,3297;-5,0399;-0,4769;5,073
6,3490;-1,2234;-4,5710;-0,1073;4,733
6,3850;-2,6957;-3,4816;0,2931;4,413
6,3880;-3,6992;-2,3637;0,8297;4,468
6,3890;-4,1158;-1,4936;1,2863;4,563
6,3900;-3,7643;-1,0291;1,5752;4,208
6,3980;-3,1057;-0,9994;1,2369;3,489
6,4080;-2,2594;-1,0699;0,5770;2,566
6,4170;-1,4461;-0,9309;0,1051;1,723
6,4270;-0,5182;-0,7009;-0,1520;0,885
6,4510;0,2455;-0,5544;-0,2628;0,661
6,4530;1,0079;-0,3838;-0,3831;1,145
6,4600;1,1791;-0,0841;-0,4305;1,258
6,4680;0,9515;0,4289;-0,5145;1,164
6,4790;0,6426;0,9679;-0,8272;1,426
6,4910;0,2964;1,4321;-1,3890;2,017
6,4980;0,0506;1,8098;-1,9699;2,676
6,5110;-0,1835;2,2127;-2,5365;3,371
6,5180;-0,2339;2,5189;-2,7569;3,742
6,5270;-0,2364;2,7446;-2,7982;3,927
6,5450;-0,2098;2,8678;-2,6894;3,937
6,5480;-0,2379;2,8761;-2,5567;3,856
6,5830;-0,3659;2,8154;-2,2646;3,632
6,5840;-0,4202;2,7909;-1,5889;3,239
6,5840;-0,4139;2,9014;-1,0513;3,114
6,5870;-0,4290;3,0050;-0,6299;3,100
6,5990;-0,2931;3,1443;-0,2412;3,167
6,6090;-0,0592;3,2922;0,1686;3,297
6,6170;0,2816;3,4252;0,5561;3,481
6,6300;0,7347;3,4704;0,8143;3,640
6,6380;1,0823;3,6054;1,0124;3,898
6,6860;1,7079;3,7938;1,3672;4,379
6,6890;2,2059;3,9755;1,5243;4,795
6,6900;2,7310;4,2040;1,5521;5,248
6,6910;3,2182;4,4974;1,5204;5,735
6,6940;3,9547;4,8508;1,6954;6,484
6,6990;4,5369;5,1627;1,8502;7,118
6,7060;5,0956;5,4960;1,9165;7,736
6,7180;5,4413;5,8770;1,8327;8,216
6,7280;5,7166;6,3255;1,6942;8,693
6,7390;6,0369;6,7865;1,5858;9,220
6,7490;6,5420;7,3249;1,5870;9,948
6,7610;6,9602;7,7694;1,6492;10,561
6,7690;7,3306;8,2288;1,6408;11,142
6,7870;7,5146;8,6992;1,5826;11,604
6,7880;7,5131;9,1493;1,4958;11,933
6,7970;7,6654;9,6662;1,3470;12,410
6,8110;8,3084;10,0685;1,2682;13,115
6,8170;8,7003;10,2098;1,2213;13,469
6,8280;8,9686;10,2651;1,0839;13,674
6,8390;8,9545;10,2912;0,9586;13,675
6,8500;9,0392;10,3109;1,0686;13,754
6,8590;9,7529;10,1026;1,3468;14,107
6,8770;10,9397;9,6325;1,7313;14,679
6,8780;11,5912;9,4222;2,1908;15,097
6,8870;11,9101;9,3790;2,7800;15,412
6,8980;11,6139;9,5144;3,3337;15,379
6,9100;10,5238;9,8715;3,5249;14,853
6,9180;9,2747;10,3999;3,1289;14,282
6,9310;7,6283;10,9214;2,4284;13,541
6,9380;6,7560;11,0831;2,0404;13,139
6,9510;6,2275;10,9431;1,8332;12,724
6,9590;6,0169;10,4682;1,7244;12,197
6,9700;6,0579;9,7101;1,8075;11,587
6,9960;6,0652;8,9786;1,9154;11,003
6,9990;5,8866;8,1318;2,0312;10,242
7,0000;5,6110;7,7400;2,1998;9,810
7,0100;5,2443;7,4151;2,4917;9,418
7,0170;4,9110;7,2857;2,7173;9,197
7,0300;4,5500;7,2998;2,8075;9,048
7,0370;4,3020;7,3249;2,6798;8,907
7,0510;4,1150;7,3758;2,4595;8,797
7,0910;3,9556;7,3770;2,2830;8,676
7,0930;3,9343;7,3867;2,0689;8,621
7,0940;3,9838;7,3117;1,6033;8,479
7,0970;3,8826;7,1415;1,0903;8,201
7,0980;3,7872;6,9641;0,6023;7,950
7,1110;3,7219;6,7882;0,2394;7,745
7,1190;3,7138;6,5969;-0,0217;7,570
7,1300;3,7748;6,3670;-0,1819;7,404
7,1370;3,8280;6,0237;-0,2302;7,141
7,1540;3,8841;5,5517;-0,0914;6,776
7,1610;3,9154;5,0320;0,3234;6,384
7,1750;3,9535;4,4972;0,8406;6,047
7,1800;3,8469;4,0027;1,2425;5,689
7,1930;3,6759;3,4940;1,5933;5,316
7,2000;3,5662;2,9495;1,7828;4,959
7,2060;3,4632;2,4134;2,0504;4,693
7,2190;3,1537;1,9289;2,3157;4,362
7,2320;2,7490;1,5453;2,5726;4,070
7,2390;2,3464;1,1919;2,6942;3,766
7,2630;1,9304;0,8484;2,6661;3,399
7,2640;1,5066;0,5672;2,6162;3,072
7,2670;0,9506;0,2511;2,5371;2,721
7,2800;0,4543;0,0069;2,5034;2,544
7,2890;-0,0257;-0,3078;2,5318;2,551
7,3170;-0,1868;-0,6702;2,6338;2,724
7,3180;-0,4324;-0,9961;2,6686;2,881
7,3220;-0,6222;-1,2498;2,6329;2,980
7,3310;-0,6706;-1,4902;2,7154;3,169
7,3390;-0,8302;-1,7344;2,7007;3,315
7,3520;-1,1573;-2,0686;2,2077;3,239
7,3580;-1,4432;-2,3126;1,6916;3,208
7,3700;-1,7675;-2,4943;1,1178;3,255
7,4000;-2,1741;-2,6432;0,6447;3,483
7,4010;-2,4459;-2,7729;0,3822;3,717
7,4020;-2,6106;-2,8971;0,3520;3,916
7,4100;-2,5224;-3,2278;0,3884;4,115
7,4210;-2,1477;-3,7404;0,3058;4,324
7,4300;-1,5086;-4,4909;0,1317;4,739
7,4370;-1,2381;-5,0778;0,0306;5,227
7,4480;-1,3865;-5,1618;0,2169;5,349
7,4580;-2,0052;-4,8096;0,4383;5,229
7,4770;-3,4590;-4,0018;0,6840;5,334
7,4780;-4,3030;-3,2653;0,8191;5,463
7,4870;-4,9331;-2,4358;1,1101;5,613
7,4990;-4,9158;-2,3301;1,0542;5,541
7,5060;-4,2477;-1,8371;1,5834;4,891
7,5180;-3,4549;-1,7457;1,5193;4,158
7,5370;-2,4575;-1,5637;1,2115;3,155
7,5420;-1,6863;-1,3751;0,9365;2,369
7,5520;-0,6138;-1,1586;0,7618;1,516
7,5650;0,2708;-1,0121;0,6219;1,218
7,5680;0,7746;-0,7775;0,4221;1,176
7,5770;0,8965;-0,4526;-0,0201;1,004
7,5880;0,5668;0,0592;-0,8172;0,996
7,5980;0,2409;0,5409;-1,5104;1,622
7,6060;-0,0125;0,9798;-2,2979;2,498
7,6190;-0,1571;1,3874;-3,0445;3,349
7,6450;-0,1715;1,6807;-3,4414;3,834
7,6510;-0,1427;1,9623;-3,4247;3,950
7,6910;0,0057;2,0977;-3,0154;3,673
7,6950;0,1189;2,1828;-2,6289;3,419
7,6970;0,1929;2,2462;-2,2076;3,155
7,6980;0,1014;2,2496;-1,6833;2,812
7,7000;-0,0396;2,3786;-1,1526;2,643
7,7010;-0,1720;2,5129;-0,7067;2,616
7,7090;-0,0171;2,6922;-0,2222;2,701
7,7230;0,1789;2,8765;0,0558;2,883
7,7290;0,4448;3,0209;0,2050;3,060
7,7450;0,7476;3,1452;0,2766;3,245
7,7510;1,0507;3,2768;0,4544;3,471
7,7580;1,3638;3,4012;0,4916;3,697
7,7800;1,8067;3,5471;0,4456;4,006
7,7810;2,1883;3,7603;0,5286;4,383
7,7860;2,7747;4,0819;0,6471;4,978
7,7970;3,1587;4,3864;0,7276;5,454
7,8070;3,5091;4,7101;0,7339;5,919
7,8170;3,8200;5,0394;0,7154;6,364
7,8390;4,1916;5,4169;0,7069;6,886
7,8420;4,5966;5,7572;0,7624;7,406
7,8530;5,0901;6,1407;0,9125;8,028
7,8580;5,4570;6,5926;0,9726;8,613
7,8680;5,6360;7,0247;0,8480;9,046
7,8780;5,7666;7,3914;0,7659;9,406
7,8880;6,0379;7,7672;0,6650;9,860
7,8980;6,2367;8,0625;0,6419;10,213
7,9070;6,6836;8,3595;0,7477;10,729
7,9170;7,5144;8,6053;0,9361;11,463
7,9280;8,2029;8,7796;1,0312;12,060
7,9450;8,9109;9,0215;1,1365;12,731
7,9480;9,3497;9,2593;1,3410;13,227
7,9600;9,7816;9,3266;1,3199;13,580
7,9770;10,5768;9,2162;1,2868;14,088
7,9810;11,3602;8,9827;1,3778;14,548
7,9870;12,1725;8,8197;1,6994;15,128
7,9980;12,4341;8,8362;1,9914;15,383
8,0080;11,5765;9,1896;2,3000;14,958
8,0190;10,3282;9,6996;2,3210;14,358
8,0270;8,7229;10,4014;1,8608;13,702
8,0410;7,4022;10,6972;1,3800;13,082
8,0470;6,6235;10,7976;1,1547;12,720
8,0880;6,1326;10,5377;1,0362;12,236
8,0920;5,7706;9,7791;0,7908;11,382
8,0940;5,6296;9,0423;0,6814;10,673
8,0960;5,4301;8,1584;0,7896;9,832
8,0980;5,2051;7,4473;1,0128;9,142
8,1090;4,9235;6,8547;1,3374;8,545
8,1170;4,5009;6,4241;1,7354;8,034
8,1290;3,9903;6,1766;2,0516;7,634
8,1410;3,6791;6,1141;2,1593;7,455
8,1720;3,4844;6,1370;2,2044;7,393
8,1730;3,5240;6,2585;2,1028;7,484
8,1740;3,6453;6,2970;1,8000;7,495
8,1770;3,6728;6,2825;1,2064;7,377
8,1900;3,6598;6,2770;0,6956;7,299
8,2010;3,6774;6,1524;0,5568;7,189
8,2070;3,6409;5,9893;0,4177;7,022
8,2200;3,6980;5,7673;0,1987;6,854
8,2270;3,6309;5,4743;0,1085;6,570
8,2400;3,5175;5,1763;0,1909;6,261
8,2870;3,3953;4,8335;0,4118;5,921
8,2900;3,2576;4,4820;0,5421;5,567
8,3010;3,1787;4,0424;0,7281;5,194
8,3030;3,1065;3,5868;0,8938;4,828
8,3050;2,9842;3,0893;1,1566;4,448
8,3070;2,8458;2,5691;1,3487;4,064
8,3130;2,5985;1,9197;1,5110;3,567
8,3190;2,3010;1,4286;1,6956;3,195
8,3280;1,9353;0,9315;1,9769;2,919
8,3380;1,5510;0,4542;2,1594;2,697
8,3470;1,0816;0,1927;2,3472;2,592
8,3560;0,5908;-0,0497;2,4749;2,545
8,3700;0,0985;-0,2997;2,5655;2,585
8,3760;-0,1793;-0,5160;2,5625;2,620
8,4050;-0,3649;-0,7930;2,5562;2,701
8,4130;-0,4826;-1,1831;2,4938;2,802
8,4160;-0,5094;-1,5572;2,3873;2,895
8,4180;-0,4125;-1,9606;2,1884;2,967
8,4280;-0,8006;-2,4638;1,7821;3,144
8,4410;-1,2615;-2,8153;1,3442;3,365
8,4460;-1,7508;-3,0753;1,0147;3,681
8,4740;-2,3439;-3,2399;0,8171;4,082
8,4750;-2,5988;-3,2833;0,6959;4,245
8,4800;-2,5259;-3,4423;0,5529;4,305
8,4880;-2,3896;-3,5283;0,3975;4,280
8,4990;-2,3057;-3,4838;0,3323;4,191
8,5060;-2,2812;-3,3869;0,2310;4,090
8,5190;-1,9223;-3,5721;0,1314;4,059
8,5290;-0,8155;-4,3900;-0,1125;4,467
8,5540;-0,0516;-5,3015;-0,3196;5,311
8,5560;-0,1532;-5,7717;-0,1342;5,775
8,5580;-0,9725;-5,3176;0,3544;5,417
8,5740;-2,4591;-4,1520;0,9613;4,920
8,5780;-3,4046;-2,9896;1,3035;4,715
8,5870;-3,9687;-1,9724;1,4419;4,660
8,5970;-3,8637;-1,4932;1,3807;4,366
8,6090;-3,1592;-1,3615;1,3036;3,679
8,6200;-2,5100;-1,3640;1,0546;3,045
8,6270;-1,7058;-1,3179;0,6559;2,253
8,6390;-0,9598;-1,2570;0,3343;1,616
8,6500;-0,4144;-1,0986;0,0863;1,177
8,6610;0,0143;-0,8626;-0,0802;0,866
8,6710;0,2252;-0,5434;-0,2603;0,643
8,6870;0,2558;-0,2093;-0,4616;0,568
8,6870;0,2020;0,2099;-0,8717;0,919
8,6970;0,0753;0,6883;-1,2752;1,451
8,7060;0,0101;1,0966;-1,6097;1,948
8,7180;-0,0945;1,4776;-1,8959;2,406
8,7290;-0,2158;1,7806;-2,2065;2,843
8,7370;-0,2256;1,9552;-2,3587;3,072
8,7460;-0,1364;2,1493;-2,4968;3,297
8,7580;-0,1019;2,3259;-2,4763;3,399
8,7930;-0,1632;2,4609;-2,1452;3,269
8,7970;-0,2171;2,5578;-1,6280;3,040
8,8000;-0,2728;2,7051;-0,9330;2,874
8,8010;-0,2918;2,8381;-0,5412;2,904
8,8070;-0,2709;3,0271;-0,1292;3,042
8,8180;-0,0626;3,2481;0,2147;3,256
8,8260;0,2206;3,4027;0,4285;3,437
8,8370;0,6300;3,5177;0,5384;3,614
8,8470;1,0429;3,6426;0,6843;3,850
8,8580;1,3015;3,8069;0,7617;4,095
8,8680;1,5424;3,9759;0,7823;4,336
8,8900;1,9061;4,3001;0,8298;4,776
8,8910;2,3907;4,6911;0,7873;5,324
8,8990;2,8440;5,0706;0,6579;5,851
8,9090;3,3934;5,5199;0,5391;6,502
8,9200;3,6705;5,8594;0,4690;6,930
8,9280;3,8070;6,2349;0,4364;7,318
8,9390;3,9427;6,5590;0,4419;7,666
8,9490;4,1264;6,8164;0,5485;7,987
8,9570;4,3377;6,9807;0,6823;8,247
8,9750;4,6454;7,1535;0,8451;8,571
8,9790;4,8756;7,3763;0,9858;8,897
8,9920;5,0856;7,7073;1,1219;9,302
8,9970;5,3897;8,1718;1,1681;9,859
9,0140;5,7956;8,6002;1,2396;10,445
9,0190;6,4595;8,8808;1,0969;11,036
9,0290;7,0428;8,9606;0,9250;11,435
9,0390;7,2337;9,0007;1,0182;11,592
9,0510;7,3064;9,1385;1,4030;11,784
9,0560;7,5238;9,2542;1,7097;12,049
9,0940;8,3092;9,1053;1,9484;12,480
9,0980;9,5814;8,6494;2,1931;13,093
9,1020;10,8443;8,0981;2,6644;13,794
9,1050;11,0004;8,0263;3,1052;13,967
9,1080;10,5004;8,5879;3,6430;14,046
9,1190;9,7132;9,3031;3,6384;13,933
9,1280;8,3775;9,9479;2,8477;13,314
9,1400;7,0207;10,2994;2,0995;12,640
9,1480;5,4577;10,3174;1,6470;11,788
9,1580;4,7660;10,0289;1,7484;11,241
9,1660;4,5146;9,3307;2,0382;10,564
9,1790;4,7934;8,4009;2,2551;9,932
9,1900;5,0096;7,4836;2,3453;9,306
9,1970;4,9461;6,6766;2,3587;8,637
9,2070;4,5405;6,0159;2,6593;7,992
9,2210;4,1174;5,7214;2,7755;7,576
9,2260;3,9044;5,6301;2,8001;7,402
9,2390;3,9384;5,6808;2,6233;7,393
9,2460;3,9312;5,7245;2,2659;7,305
9,2590;3,8555;5,7194;1,6674;7,096
9,2730;3,7691;5,7299;1,0069;6,932
9,2790;3,5928;5,6026;0,6748;6,690
9,2880;3,4950;5,4434;0,4317;6,483
9,3060;3,3684;5,2253;0,2386;6,221
9,3070;3,4333;5,0351;0,4466;6,111
9,3180;3,4134;4,7443;0,8258;5,903
9,3290;3,0384;4,3267;1,1805;5,417
9,3420;2,8696;4,0182;1,4778;5,154
9,3470;2,6732;3,6194;1,7439;4,826
9,3890;2,4711;3,1991;1,8104;4,429
9,3920;2,3502;2,6696;1,8289;3,999
9,3960;2,1428;2,1143;1,7670;3,491
9,3980;1,8724;1,5060;1,7506;2,973
9,3990;1,5017;0,9888;1,6006;2,407
9,4050;0,8667;0,4265;1,1121;1,473
9,4170;0,2653;0,0077;1,0942;1,126
9,4280;-0,1372;-0,3170;1,3506;1,394
9,4390;-0,4237;-0,5778;1,5704;1,726
9,4640;-0,8114;-0,8407;1,6096;1,989
9,4670;-1,0213;-1,1366;1,5666;2,188
9,4680;-1,2702;-1,4412;1,5540;2,471
9,4770;-1,5068;-1,6923;1,4403;2,685
9,5330;-1,6609;-1,8536;1,2784;2,798
9,5410;-1,8326;-1,9799;0,8905;2,841
9,5440;-2,0044;-2,1268;0,2865;2,937
9,5470;-2,0582;-2,2630;-0,0973;3,061
9,5490;-2,2273;-2,3902;-0,5559;3,314
9,5500;-2,4984;-2,5157;-0,9394;3,668
9,5510;-2,6093;-2,5889;-0,9930;3,807
9,5580;-2,6302;-2,5499;-0,8912;3,770
9,5680;-2,4249;-2,5025;-0,6323;3,542
9,5780;-2,1800;-2,5623;-0,3504;3,382
9,5860;-1,9241;-2,6686;-0,1832;3,295
9,6000;-2,1426;-2,6427;-0,2556;3,412
9,6410;-2,1830;-2,5470;-0,3239;3,370
9,6450;-1,4918;-2,9045;-0,6032;3,321
9,6470;-0,5232;-4,0340;-1,6710;4,398
9,6490;-0,7551;-4,4821;-2,2031;5,051
9,6510;-1,4536;-4,1199;-1,7900;4,721
9,6580;-1,8296;-3,3543;-1,0380;3,959
9,6680;-1,7400;-2,4338;-0,0505;2,992
9,6820;-1,7178;-1,5424;0,8178;2,449
9,7330;-1,5667;-0,6385;1,3243;2,148
9,7350;-1,2978;-0,2187;1,1755;1,765
9,7350;-1,2009;-0,0170;0,7421;1,412
9,7360;-1,4040;-0,1077;0,0872;1,411
9,7370;-1,3851;-0,2289;-0,3411;1,445
9,7380;-1,1296;-0,4082;-0,6376;1,360
9,7520;-0,7173;-0,4584;-0,4549;0,965
9,7590;-0,3318;-0,3535;-0,0704;0,490
9,7720;0,1403;-0,1387;0,3327;0,387
9,7770;0,4411;0,1522;0,6608;0,809
9,7860;0,5712;0,5537;0,6743;1,043
9,8070;0,7037;0,9653;0,1658;1,206
9,8100;0,8000;1,4223;-0,7480;1,795
9,8170;0,6391;1,7710;-1,4366;2,368
9,8250;0,2388;2,0609;-2,0576;2,922
9,8360;-0,1203;2,2847;-2,2662;3,220
9,8490;-0,5637;2,3102;-2,2286;3,259
9,8820;-0,9513;2,2105;-1,8058;3,009
9,8870;-1,3443;2,0970;-0,9031;2,650
9,8920;-1,5713;2,0805;-0,2845;2,623
9,8940;-1,5810;2,1408;0,3688;2,687
9,8970;-1,4377;2,3003;0,8875;2,854
9,9070;-1,3753;2,3704;1,1019;2,954
9,9160;-1,3204;2,5202;1,0405;3,029
9,9290;-1,2320;2,6032;0,6563;2,954
9,9370;-1,0974;2,6895;0,4670;2,942
9,9460;-0,7581;2,7882;0,3989;2,917
9,9640;-0,3800;2,8502;0,4588;2,912
9,9680;-0,0621;2,9635;0,6244;3,029
9,9770;0,2331;3,1199;0,8079;3,231
9,9880;0,6928;3,3819;1,0690;3,614
10,0140;1,1311;3,6879;1,4312;4,114
10,0170;1,5115;3,9305;1,6490;4,523
10,0200;1,7202;4,1899;1,5807;4,797
10,0290;1,7397;4,4830;1,4430;5,021
10,0420;1,7425;4,7556;1,2355;5,213
10,0480;1,9007;4,9704;1,0782;5,430
10,0660;2,2814;5,1694;1,1064;5,758
10,0670;2,6955;5,3103;1,2702;6,089
10,1040;3,2329;5,4825;1,6355;6,571
10,1090;3,6362;5,6935;1,8417;7,002
10,1100;3,9542;5,9986;1,8433;7,417
10,1110;4,0577;6,4366;1,7601;7,810
10,1180;4,0220;6,7839;1,7136;8,071
10,1290;4,1856;7,0674;1,6785;8,384
10,1370;4,4463;7,1112;1,7822;8,574
10,1630;4,6707;7,1709;2,1699;8,829
10,1670;4,9099;7,2867;2,9204;9,259
10,1690;5,7203;7,3619;3,7271;10,040
10,1770;7,0374;7,2115;4,1050;10,880
10,1870;8,9811;6,5674;4,4278;11,975
10,1980;9,8112;6,2181;4,6774;12,522
10,2070;9,8103;6,5620;5,1749;12,887
10,2170;9,0956;7,4383;5,5623;13,000
10,2280;7,5432;8,5927;5,1513;12,541
10,2370;6,3344;9,2499;4,5776;12,109
10,2500;5,1157;9,7366;3,9495;11,686
10,2870;4,1750;9,9321;3,5317;11,338
10,2880;3,8687;9,7702;3,4201;11,051
10,2890;3,8515;9,1716;3,3263;10,489
10,2890;3,9534;8,3398;2,9859;9,700
10,2980;3,7785;7,7306;2,8193;9,055
10,3110;3,4736;7,1717;2,6758;8,406
10,3170;2,9970;6,6695;2,4225;7,703
10,3290;2,6982;6,4148;2,1233;7,276
10,3360;2,8680;6,3349;2,0355;7,246
10,3490;3,2960;6,3640;2,1125;7,472
10,3790;3,5798;6,3961;1,9802;7,592
10,3850;3,7181;6,4254;1,5833;7,591
10,3890;3,6957;6,3974;1,0326;7,460
10,3920;3,6384;6,3195;0,4823;7,308
10,4010;3,4961;6,1752;0,1215;7,097
10,4090;3,3391;5,9083;-0,0305;6,787
10,4280;3,1860;5,5874;0,1007;6,433
10,4330;3,0615;5,1662;0,5711;6,032
10,4380;2,9642;4,8299;1,0813;5,769
10,4490;2,7720;4,3642;1,5407;5,395
10,4570;2,3824;3,8972;1,5451;4,822
10,4690;1,9368;3,4705;1,5152;4,253
10,5110;1,5947;3,0766;1,4947;3,774
10,5110;1,3319;2,5648;1,4811;3,247
10,5120;1,1599;2,0605;1,4572;2,778
10,5130;0,9960;1,5828;1,4543;2,369
10,5180;0,9438;1,1096;1,5823;2,151
10,5290;1,0671;0,7008;1,9083;2,296
10,5390;1,0095;0,2965;2,0629;2,316
10,5460;0,8708;-0,0992;2,0390;2,219
10,5600;0,4575;-0,5251;1,8881;2,012
10,5680;-0,0931;-0,8848;1,8082;2,015
10,6010;-0,4469;-1,1669;1,7448;2,146
10,6020;-0,4990;-1,4874;1,6565;2,281
10,6030;-0,5300;-1,7777;1,5592;2,423
10,6070;-0,5123;-1,9631;1,5109;2,530
10,6170;-0,4923;-2,1502;1,4780;2,655
10,6290;-0,4255;-2,3979;1,3435;2,781
10,6370;-0,5182;-2,7750;0,8944;2,961
10,6520;-1,0288;-3,1640;0,2451;3,336
10,6700;-1,5980;-3,4259;-0,1440;3,783
10,6720;-2,3579;-3,8153;-0,3953;4,502
10,6780;-2,8091;-4,1889;-0,5417;5,073
10,6890;-2,9737;-4,5832;-0,7040;5,509
10,6970;-3,0649;-4,7293;-0,7616;5,687
10,7070;-2,9554;-4,5739;-0,3860;5,459
10,7160;-2,5638;-4,5267;0,0849;5,203
10,7280;-1,0635;-5,0920;0,3118;5,211
10,7370;0,2542;-6,0449;-0,0704;6,051
10,7490;0,6433;-6,5428;-0,2219;6,578
10,7570;0,3159;-6,0191;0,2148;6,031
10,7690;-0,9332;-4,7135;0,6800;4,853
10,8140;-1,8355;-3,6715;0,7856;4,179
10,8170;-2,6561;-2,6702;0,7100;3,833
10,8190;-3,0697;-2,0667;0,4580;3,729
10,8210;-2,9462;-1,8864;0,0490;3,499
10,8220;-2,3332;-1,9197;-0,2010;3,028
10,8280;-1,1671;-1,9348;0,1374;2,264
10,8360;-0,3242;-1,9470;0,2465;1,989
10,8490;0,5020;-1,8933;0,2135;1,970
10,8560;0,9387;-1,6821;0,1778;1,935
10,8670;1,0957;-1,2892;0,1395;1,698
10,8770;1,1141;-0,8427;-0,2371;1,417
10,9130;0,8307;-0,3653;-1,0285;1,372
10,9130;0,5261;0,1251;-1,5697;1,660
10,9140;0,1055;0,6355;-2,2817;2,371
10,9180;-0,1656;1,0056;-2,7675;2,949
10,9250;-0,4464;1,2890;-3,1284;3,413
10,9370;-0,7404;1,4403;-3,3057;3,681
10,9560;-1,0412;1,4519;-3,1663;3,636
10,9630;-1,2411;1,4246;-2,8654;3,432
10,9660;-1,3943;1,4523;-2,1476;2,944
10,9780;-1,3803;1,6175;-1,4577;2,578
11,0120;-1,3586;1,8304;-0,7326;2,394
11,0140;-1,2347;2,0421;-0,2915;2,404
11,0160;-1,0295;2,3344;0,2069;2,560
11,0180;-0,8682;2,5647;0,3738;2,733
11,0260;-0,5708;2,8273;0,3074;2,901
11,0390;-0,1373;3,0837;0,1954;3,093
11,0570;0,4114;3,2501;0,2244;3,284
11,0610;0,8049;3,4062;0,3464;3,517
11,0920;1,1518;3,5010;0,6885;3,749
11,0950;1,4904;3,6425;0,9591;4,051
11,0960;2,0645;3,8726;1,4670;4,627
11,0980;2,5885;4,1347;1,9358;5,248
11,1080;3,1327;4,3873;2,0998;5,785
11,1190;3,3815;4,6130;1,9814;6,053
11,1320;3,5519;4,8780;1,7558;6,284
11,1380;3,6862;5,0943;1,6479;6,500
11,1480;3,9044;5,3450;1,6318;6,817
11,1600;4,0890;5,5967;1,7208;7,142
11,1830;4,2704;5,9262;1,9112;7,550
11,1860;4,3895;6,2948;2,0988;7,956
11,1890;4,5902;6,7870;2,3399;8,521
11,2240;4,7335;7,2525;2,4170;8,991
11,2280;4,9651;7,7872;2,4247;9,548
11,2290;5,3637;8,3138;2,2318;10,142
11,2300;5,7690;8,5430;1,8916;10,481
11,2400;6,1895;8,5686;1,6249;10,694
11,2520;6,3737;8,6284;1,9146;10,897
11,2590;6,8011;8,7287;2,4922;11,343
11,2880;7,9306;8,5403;3,1701;12,078
11,2930;9,4943;8,0037;3,7024;12,958
11,2960;10,3462;7,6815;4,2415;13,566
11,3000;10,4763;8,0345;5,0353;14,130
11,3100;10,0838;8,8294;5,3645;14,437
11,3200;9,4076;9,4447;4,9376;14,216
11,3280;8,3437;10,1105;4,0307;13,714
11,3390;6,9610;10,5672;3,0772;13,023
11,3600;5,8505;10,5232;2,4068;12,278
11,3630;5,1127;10,0649;2,1546;11,493
11,3710;4,8761;9,2754;2,3140;10,731
11,3790;4,9650;8,5608;2,5909;10,230
11,3950;4,8790;7,6834;2,8930;9,550
11,4000;4,5274;7,0777;2,9852;8,916
11,4070;4,0318;6,7157;3,1390;8,439
11,4190;3,6534;6,6270;3,1418;8,194
11,4310;3,5424;6,7134;2,9392;8,140
11,4390;3,6273;6,8008;2,6446;8,149
11,4500;3,6142;6,8353;2,1731;8,032
11,4580;3,4567;6,7634;1,6689;7,777
11,4750;3,3406;6,7160;1,1556;7,589
11,4790;3,2430;6,6415;0,9082;7,447
11,5200;3,2976;6,4342;0,7630;7,270
11,5270;3,3091;6,2112;0,7647;7,079
11,5290;3,2281;5,9442;0,8449;6,817
11,5310;3,0914;5,6861;1,0214;6,552
11,5340;2,9156;5,3690;1,2424;6,235
11,5390;2,7900;4,9761;1,3485;5,862
11,5570;2,6997;4,5133;1,4334;5,451
11,5600;2,6636;4,0812;1,5631;5,118
11,5690;2,6695;3,5972;1,7635;4,814
11,5780;2,6377;3,0757;1,9391;4,492
11,6090;2,3899;2,6165;2,1469;4,143
11,6120;2,0538;2,1537;2,2597;3,737
11,6150;1,7130;1,6786;2,4277;3,413
11,6210;1,5307;1,2825;2,5839;3,266
11,6300;1,2634;0,7920;2,7696;3,145
11,6410;0,9624;0,3781;2,9193;3,097
11,6490;0,6148;-0,0057;3,1680;3,227
11,6630;0,3101;-0,3499;3,2875;3,321
11,6680;0,0535;-0,7939;3,2500;3,346
11,6790;-0,0820;-1,0791;3,2654;3,440
11,6970;-0,1916;-1,3594;3,4355;3,700
11,6990;-0,2471;-1,7177;3,3512;3,774
11,7070;-0,2853;-2,1150;2,9130;3,611
11,7190;-0,2706;-2,5707;2,3375;3,485
11,7360;-0,5745;-3,0696;1,4006;3,423
11,7410;-1,0278;-3,3124;0,8320;3,567
11,7510;-1,5660;-3,3750;0,5251;3,758
11,7580;-1,9419;-3,3426;0,6481;3,920
11,7740;-2,0455;-3,3975;0,9011;4,067
11,7780;-1,9082;-3,5797;0,9799;4,173
11,8210;-1,8945;-3,7782;0,8682;4,315
11,8230;-1,8131;-3,9216;0,7512;4,385
11,8270;-0,9669;-4,5886;0,3778;4,705
11,8290;-0,1018;-5,9074;-0,3480;5,919
11,8320;-0,1108;-6,6074;-0,3937;6,620
11,8400;-0,7787;-6,2125;0,5658;6,287
11,8510;-1,9780;-4,9860;1,6934;5,625
11,8590;-3,0443;-4,0525;1,8640;5,400
11,8720;-4,1066;-3,0791;1,8179;5,445
11,8780;-4,7133;-2,5744;1,6020;5,604
11,9030;-4,6419;-2,5595;1,0706;5,408
11,9040;-4,1835;-2,6999;0,5836;5,013
11,9080;-3,2143;-2,7366;0,4807;4,249
11,9190;-2,3038;-2,7049;0,5016;3,588
11,9270;-1,3091;-2,6768;0,4742;3,017
11,9380;-0,6428;-2,5001;0,5450;2,638
11,9480;-0,0836;-2,0283;0,5987;2,116
11,9630;0,1744;-1,4932;0,3748;1,549
11,9940;0,1880;-0,9523;-0,3344;1,027
11,9970;0,0451;-0,4826;-1,1059;1,207
12,0000;-0,2969;0,0024;-2,1426;2,163
12,0010;-0,5465;0,3841;-2,8332;2,911
12,0080;-0,6902;0,6488;-3,3394;3,471
12,0200;-0,7776;0,9197;-3,4192;3,625
12,0280;-0,9044;1,1648;-3,1405;3,470
12,0390;-0,9827;1,3278;-2,7194;3,182
12,0470;-1,0970;1,3536;-2,1097;2,736
12,0760;-1,3111;1,3722;-1,2988;2,300
12,0820;-1,3287;1,5687;-0,6725;2,163
12,0830;-1,1543;1,7905;-0,1034;2,133
12,1130;-0,9273;2,0441;0,2673;2,260
12,1180;-0,7519;2,2916;0,4324;2,450
12,1190;-0,5564;2,5672;0,4972;2,673
12,1200;-0,2777;2,8048;0,4018;2,847
12,1280;0,0742;2,9535;0,2999;2,970
12,1430;0,7028;3,1132;0,2590;3,202
12,1850;1,5280;3,3477;0,3745;3,699
12,1910;1,8876;3,5292;0,3836;4,021
12,1920;2,2576;3,8019;0,2527;4,429
12,1930;2,5628;4,0921;0,1893;4,832
12,1930;2,9700;4,5196;0,1574;5,410
12,1980;3,4598;4,8792;0,1719;5,984
12,2090;4,0342;5,3090;0,2033;6,671
12,2200;4,3352;5,6539;0,2506;7,129
12,2270;4,4492;6,0226;0,2765;7,493
12,2380;4,5164;6,2921;0,2581;7,750
12,2470;4,6866;6,5514;0,3547;8,063
12,2590;4,8107;6,7611;0,6323;8,322
12,2930;5,0202;7,0683;0,9337;8,720
12,3010;5,2329;7,3785;1,0312;9,104
12,3030;5,4367;7,8222;1,1379;9,594
12,3040;5,7676;8,3158;1,2065;10,192
12,3090;6,2863;8,5995;1,0345;10,702
12,3200;7,0455;8,8158;1,0481;11,334
12,3290;7,8085;9,0701;1,5498;12,068
12,3380;8,3505;9,2709;1,9172;12,624
12,3470;9,5279;9,1370;2,2548;13,392
12,3600;11,1408;8,5433;2,5745;14,274
12,3990;11,8311;8,2306;3,1523;14,753
12,4060;12,1272;8,5457;4,0204;15,371
12,4070;12,2693;9,3641;4,5526;16,092
12,4080;11,8588;9,9933;4,1684;16,058
12,4090;10,9088;10,7102;3,3287;15,646
12,4190;9,6335;11,1966;2,5391;14,987
12,4280;8,1466;11,0922;1,7920;13,879
12,4400;6,8518;10,3676;1,1839;12,483
12,4510;6,4140;9,4696;1,1222;11,492
12,4690;6,1720;8,5743;1,3220;10,647
12,4800;5,7447;7,5565;1,7261;9,648
12,5360;5,1346;6,9019;2,0477;8,843
12,5440;4,4105;6,4237;2,3378;8,135
12,5460;3,8786;6,1325;2,5974;7,707
12,5480;3,4759;6,0246;2,7170;7,467
12,5490;3,3256;6,0700;2,6249;7,402
12,5510;3,5329;6,2621;2,3136;7,553
12,5530;3,7490;6,2695;1,7737;7,517
12,5540;3,7899;6,1379;1,1260;7,301
12,5590;3,6882;6,0345;0,4452;7,086
12,5780;3,4974;5,8694;-0,1542;6,834
12,5790;3,3663;5,7093;-0,3470;6,637
12,6230;3,3219;5,4886;-0,3446;6,425
12,6240;3,3748;5,2444;-0,1535;6,238
12,6250;3,3835;5,0346;0,1166;6,067
12,6260;3,2692;4,7563;0,4387;5,788
12,6290;3,1755;4,4291;0,7009;5,495
12,6410;2,9865;4,0821;0,7341;5,111
12,6470;2,7445;3,6943;0,6581;4,649
12,6580;2,5024;3,2188;0,6622;4,131
12,6680;2,2593;2,7478;0,7541;3,636
12,6790;2,0934;2,2206;0,9595;3,199
12,7120;1,9253;1,6421;1,1054;2,761
12,7150;1,6224;1,2322;1,3220;2,429
12,7190;1,3467;0,7718;1,5868;2,220
12,7200;1,0731;0,3939;1,8184;2,148
12,7270;0,7594;0,0205;2,0190;2,157
12,7480;0,5084;-0,3789;2,0997;2,193
12,7550;0,1764;-0,7509;2,2088;2,340
12,7840;-0,0400;-1,0877;2,2236;2,476
12,7850;-0,3082;-1,4705;2,1778;2,646
12,7860;-0,5778;-1,9173;1,9910;2,824
12,7880;-0,7800;-2,4050;1,5446;2,963
12,7980;-0,9642;-2,8213;1,1055;3,180
12,8110;-1,2944;-3,2576;0,6672;3,568
12,8220;-1,5410;-3,6303;0,5059;3,976
12,8290;-1,8824;-3,8499;0,3916;4,303
12,8390;-2,1783;-3,9537;0,3295;4,526
12,8490;-2,3477;-4,0642;0,3178;4,704
12,8710;-2,5134;-4,2356;0,1992;4,929
12,8730;-2,7616;-4,3996;0,0007;5,194
12,8790;-3,0422;-4,4259;-0,1612;5,373
12,9140;-3,2803;-4,3271;-0,2458;5,435
12,9170;-2,5645;-4,5393;-0,2661;5,220
12,9240;-1,0426;-5,3982;-0,5604;5,526
12,9250;-0,2496;-6,3270;-0,8152;6,384
12,9300;-0,3596;-6,0197;-0,1326;6,032
12,9400;-1,0548;-5,1192;0,7537;5,281
12,9490;-2,1492;-3,9287;1,3858;4,688
12,9640;-3,0500;-2,7637;1,7096;4,457
12,9680;-3,7236;-1,8601;1,8306;4,547
13,0110;-3,7197;-1,4372;1,7140;4,340
13,0120;-2,9453;-1,3653;1,2467;3,477
13,0130;-2,2723;-1,4591;0,7896;2,813
13,0130;-1,4019;-1,5739;0,4005;2,145
13,0180;-0,7472;-1,5670;0,0960;1,739
13,0270;-0,0920;-1,4372;-0,0099;1,440
13,0410;0,3496;-1,1867;-0,0554;1,238
13,0510;0,7565;-0,7353;-0,0808;1,058
13,0770;0,8870;-0,2738;-0,1577;0,942
13,0830;0,8192;0,3046;-0,3993;0,961
13,0850;0,6010;0,7957;-0,8150;1,288
13,1290;0,3243;1,3046;-1,2514;1,837
13,1320;-0,0145;1,7395;-1,7750;2,485
13,1340;-0,1968;2,1423;-2,0023;2,939
13,1360;-0,0836;2,3750;-1,9483;3,073
13,1420;0,1003;2,5746;-1,9157;3,211
13,1440;0,1097;2,8009;-1,9108;3,392
13,1510;-0,0565;2,9027;-1,9010;3,470
13,1690;-0,3412;2,9335;-1,6072;3,362
13,1730;-0,6433;3,0133;-1,0733;3,263
13,2340;-0,7148;3,1357;-0,6988;3,291
13,2400;-0,5184;3,2299;-0,3425;3,289
13,2410;-0,1727;3,3332;-0,0021;3,338
13,2420;0,3320;3,4865;0,1579;3,506
13,2430;0,8226;3,6193;0,1849;3,716
13,2440;1,3843;3,7448;0,0722;3,993
13,2460;1,7804;3,8728;0,1456;4,265
13,2480;2,2469;4,0822;0,3327;4,672
13,2590;2,6761;4,2938;0,4722;5,081
13,2670;3,0174;4,5210;0,5886;5,467
13,2780;3,3423;4,7345;0,5826;5,825
13,3130;3,7006;5,0516;0,6560;6,296
13,3130;3,9704;5,2115;0,7369;6,593
13,3150;4,3931;5,4228;0,8448;7,030
13,3180;4,9691;5,6867;0,9433;7,611
13,3270;5,5198;6,0222;1,0440;8,236
13,3380;5,7971;6,3200;0,9172;8,625
13,3480;5,9002;6,7687;0,6202;9,001
13,3650;5,9635;7,1230;0,4168;9,299
13,3700;6,0460;7,5062;0,1990;9,640
13,4120;6,1429;7,9600;0,1029;10,055
13,4150;6,5031;8,3200;0,0785;10,560
13,4170;7,2793;8,4662;0,1175;11,166
13,4190;8,2771;8,4534;0,2819;11,834
13,4200;8,7560;8,5059;0,5910;12,222
13,4280;9,1029;8,7117;0,9488;12,636
13,4400;9,7476;8,8871;1,2237;13,247
13,4470;10,9835;8,7091;1,3555;14,083
13,4600;12,2030;8,1949;1,5206;14,778
13,4690;12,4121;7,9729;1,8602;14,869
13,4810;11,8583;8,2541;2,3674;14,641
13,4890;11,0838;8,8361;2,7877;14,446
13,5130;9,9901;9,5662;2,8487;14,122
13,5140;8,7777;10,0706;2,4527;13,582
13,5170;7,6601;10,1507;1,9739;12,869
13,5290;6,6910;9,9168;1,6568;12,077
13,5370;6,2434;9,4317;1,6182;11,426
13,5480;6,1460;8,6031;1,5756;10,690
13,5660;6,2511;7,7567;1,5865;10,088
13,5690;6,0684;6,9056;1,4775;9,311
13,6000;5,5634;6,3904;1,2970;8,571
13,6010;4,6784;6,1006;0,9699;7,749
13,6020;4,1376;5,9989;0,7184;7,323
13,6080;3,6658;6,0886;0,6747;7,139
13,6180;3,4908;6,1851;0,8469;7,152
13,6300;3,4190;6,1968;1,0878;7,161
13,6380;3,5724;6,3896;1,3834;7,450
13,6490;3,9609;6,7995;1,5861;8,027
13,6660;4,3591;6,9795;1,5570;8,375
13,6720;4,8079;7,1863;1,4196;8,762
13,6790;5,1597;7,3333;1,2211;9,049
13,7070;5,2588;7,2613;1,0388;9,026
13,7110;5,2537;6,9642;0,9918;8,780
13,7120;5,0094;6,4111;1,1624;8,219
13,7180;4,8567;5,8500;1,3621;7,724
13,7310;4,8553;5,1957;1,7139;7,315
13,7370;4,9913;4,4259;2,1640;7,013
13,7480;4,8358;3,7393;2,4309;6,578
13,7670;4,3864;3,1627;2,3650;5,902
13,7710;3,6265;2,5346;2,0447;4,874
13,8030;3,1624;1,9188;1,9100;4,163
13,8060;2,6305;1,2582;1,9774;3,523
13,8060;2,3490;0,8032;2,3018;3,385
13,8070;2,4890;0,3161;2,9072;3,840
13,8190;2,2492;-0,2874;3,1348;3,869
13,8300;1,3094;-0,8786;2,7044;3,131
13,8380;0,4799;-1,2710;2,1701;2,560
13,8480;-0,5635;-1,5545;1,6881;2,363
13,8570;-1,2639;-1,8921;1,4993;2,725
13,8680;-1,7563;-2,2734;1,5288;3,254
13,9080;-1,8731;-2,5750;1,8240;3,670
13,9120;-1,4117;-2,9097;2,5680;4,130
13,9130;-1,0684;-3,1862;2,9935;4,501
13,9140;-0,8879;-3,4534;2,9775;4,645
13,9200;-1,2157;-3,5631;2,4039;4,467
13,9280;-1,8364;-3,4900;1,5989;4,255
13,9380;-2,1657;-3,3864;0,8544;4,109
13,9490;-1,9569;-3,3308;0,4299;3,887
13,9580;-1,2952;-3,4313;0,2503;3,676
13,9680;-0,1789;-3,8591;0,2354;3,870
13,9780;0,6957;-4,6026;0,0649;4,655
14,0040;0,5315;-5,0213;-0,2786;5,057
14,0040;-0,5911;-5,0541;-0,3499;5,101
14,0180;-2,0941;-4,6302;0,2711;5,089
14,0220;-2,9113;-4,2382;0,7665;5,199
14,0300;-3,9411;-3,8288;1,5147;5,700
14,0370;-4,4577;-3,5732;2,3206;6,166
14,0480;-4,8323;-3,4941;2,5544;6,487
14,0590;-4,8859;-3,4231;2,1521;6,342
14,0680;-3,8518;-3,1170;1,7187;5,245
14,0850;-2,6703;-2,8393;1,3193;4,115
14,0900;-1,6563;-2,8527;0,2466;3,308
14,0980;-1,3820;-2,9654;-0,8738;3,386
14,1340;-1,6752;-2,9411;-1,9181;3,890
14,1380;-2,0998;-2,8220;-2,5642;4,353
14,1380;-2,4604;-2,5572;-2,9164;4,593
14,1390;-2,4066;-2,3040;-2,9165;4,428
14,1480;-1,6755;-1,8804;-2,5683;3,597
14,1580;-0,8649;-1,4526;-1,8486;2,505
14,1680;-0,5806;-1,0755;-1,6634;2,064
14,2160;-0,7506;-0,7123;-2,1651;2,400
14,2220;-1,4362;-0,2743;-2,8843;3,234
14,2230;-1,8527;-0,0481;-3,1672;3,670
14,2240;-2,1377;0,0333;-3,3059;3,937
14,2270;-2,1862;0,0984;-3,1727;3,854
14,2290;-2,0878;0,2222;-2,8250;3,520
14,2400;-1,7920;0,3794;-2,3191;2,955
14,2490;-1,4610;0,5996;-1,7932;2,389
14,2570;-1,3582;0,8238;-1,6825;2,314
14,2690;-1,3759;1,0149;-1,7796;2,468
14,3120;-1,3165;1,1399;-1,7456;2,466
14,3130;-1,0993;1,2669;-1,4772;2,235
14,3140;-0,7490;1,3644;-1,1569;1,939
14,3150;-0,2179;1,4949;-0,8262;1,722
14,3180;0,2561;1,6945;-0,5092;1,788
14,3270;1,0365;1,9724;0,0139;2,228
14,3380;1,8048;2,2575;0,4187;2,920
14,3570;2,7907;2,6263;0,7466;3,904
14,3610;3,6515;3,0774;0,9892;4,877
14,3730;4,5383;3,5906;1,0320;5,878
14,3810;4,9424;4,0391;1,0070;6,462
14,4040;5,4001;4,6531;1,0939;7,212
14,4080;5,8363;5,2330;1,3610;7,956
14,4120;6,5170;5,9094;1,6498;8,951
14,4190;7,1099;6,5911;1,9392;9,887
14,4320;7,4184;7,2843;2,1701;10,621
14,4390;7,6378;7,8534;2,3239;11,199
14,4500;8,0551;8,4992;2,7308;12,024
14,4570;8,4240;9,2100;3,1480;12,872
14,4670;8,5865;9,9434;3,2798;13,541
14,4860;9,0236;10,7386;3,2409;14,396
14,4910;9,5776;11,4471;3,2793;15,281
14,5250;9,9891;11,7886;3,3863;15,818
14,5310;10,2114;12,0807;3,4212;16,184
14,5330;10,4340;12,2857;3,4908;16,492
14,5350;10,8430;12,4190;3,5414;16,863
14,5380;11,6455;12,2581;3,5726;17,281
14,5490;13,0530;11,6157;3,5840;17,837
14,5570;13,6925;11,1791;3,5110;18,022
14,5700;13,7952;10,5713;3,6050;17,750
14,5770;12,9802;10,2348;3,6142;16,920
14,6050;11,0261;10,2402;3,3009;15,406
14,6060;8,8262;10,6638;2,8462;14,132
14,6090;6,7185;11,1139;2,4013;13,207
14,6170;5,6482;11,2480;2,1228;12,764
14,6290;4,8679;11,1726;2,0562;12,359
14,6420;4,7412;10,7535;2,1402;11,946
14,6490;4,9206;10,0764;2,3912;11,466
14,6600;5,0181;9,4233;2,6692;11,005
14,6690;4,8479;8,7080;2,7599;10,342
14,6840;4,5352;8,2670;2,6876;9,805
14,6870;4,1810;7,8672;2,6234;9,287
14,7260;3,8742;7,6326;2,6977;8,975
14,7330;3,9795;7,5334;2,7802;8,962
14,7370;4,4478;7,4671;2,4429;9,028
14,7390;4,8134;7,3849;1,6887;8,975
14,7400;4,8587;7,4289;1,0490;8,938
14,7500;4,8169;7,4568;0,3312;8,883
14,7590;4,9546;7,4681;-0,2674;8,966
14,7690;5,1978;7,4230;-0,5910;9,081
14,7780;5,5664;7,3237;-0,6308;9,221
14,7900;5,9374;7,1574;-0,5085;9,313
14,8000;6,0093;6,9256;-0,3161;9,175
14,8080;5,8870;6,5566;0,0319;8,812
14,8700;5,6798;6,1499;0,4645;8,384
14,8770;5,2885;5,7193;0,9325;7,845
14,8780;4,9681;5,1705;1,1923;7,269
14,8810;4,5784;4,4215;1,5024;6,540
14,8820;4,3015;3,8493;1,7388;6,029
14,8830;4,0346;3,1824;2,0767;5,542
14,8850;3,8541;2,5498;2,3531;5,186
14,8880;3,5564;1,9441;2,5198;4,773
14,8990;3,1597;1,3996;2,6190;4,336
14,9080;2,6467;0,8435;2,6611;3,847
14,9220;2,1989;0,4009;2,6829;3,492
14,9270;1,6192;-0,0396;2,6741;3,126
14,9700;1,0977;-0,3342;2,6209;2,861
14,9750;0,6897;-0,6126;2,5551;2,716
14,9760;0,4810;-0,8728;2,4265;2,623
14,9770;0,2331;-1,2315;2,2046;2,536
14,9770;0,0202;-1,5665;1,9441;2,497
14,9870;-0,1938;-1,9144;1,6297;2,522
14,9970;-0,4179;-2,2284;1,2344;2,582
15,0120;-0,6693;-2,4813;0,8496;2,707
15,0230;-1,0808;-2,5954;0,4602;2,849
15,0320;-1,5815;-2,8235;-0,1072;3,238
15,0530;-1,7851;-3,1052;-0,5452;3,623
15,0560;-2,0254;-3,3545;-0,9519;4,033
15,0580;-2,3768;-3,5413;-1,1469;4,416
15,0670;-2,8285;-3,6660;-1,0317;4,744
15,0800;-3,2439;-3,7509;-0,7982;5,023
15,0890;-3,3348;-4,0016;-0,8435;5,277
15,1000;-2,7133;-4,4429;-1,1099;5,323
15,1120;-1,7779;-5,3773;-1,8726;5,965
15,1550;-1,6455;-5,8672;-2,1580;6,464
15,1570;-2,0943;-5,4504;-1,7666;6,100
15,1570;-2,8314;-4,4500;-0,9892;5,366
15,1580;-3,3482;-2,9974;0,1816;4,498
15,1590;-3,4569;-2,2672;0,6102;4,179
15,1670;-3,2403;-1,7940;0,9273;3,818
15,1820;-2,6689;-1,6682;0,9707;3,294
15,1870;-2,0899;-1,6779;0,7099;2,773
15,2040;-1,7742;-1,7613;0,3007;2,518
15,2080;-1,5985;-1,9266;-0,2804;2,519
15,2460;-1,5091;-1,9395;-0,4212;2,493
15,2470;-1,1980;-1,6852;-0,2840;2,087
15,2480;-0,8238;-1,3644;-0,0841;1,596
15,2490;-0,5133;-0,9332;0,0295;1,065
15,2570;-0,2450;-0,4039;-0,1173;0,487
15,2740;-0,2389;0,1046;-0,6525;0,703
15,2780;-0,3809;0,4921;-1,1954;1,348
15,3120;-0,5387;0,9932;-1,8564;2,173
15,3190;-0,6590;1,4871;-2,5268;3,005
15,3200;-0,6706;1,8820;-2,9939;3,599
15,3210;-0,5714;2,1631;-3,3341;4,015
15,3290;-0,4545;2,3457;-3,3709;4,132
15,3390;-0,4125;2,4500;-3,1826;4,038
15,3460;-0,4648;2,4709;-2,7761;3,745
15,3580;-0,4697;2,4737;-2,1138;3,288
15,4000;-0,3804;2,5299;-1,2162;2,833
15,4010;-0,1625;2,6565;-0,6455;2,739
15,4010;0,0777;2,7668;-0,3095;2,785
15,4020;0,2486;2,8387;-0,1266;2,852
15,4070;0,5770;2,8968;0,1772;2,959
15,4190;1,0386;2,9840;0,5884;3,214
15,4260;1,7291;3,1574;0,9958;3,735
15,4380;2,2703;3,3968;1,3780;4,312
15,4480;3,0452;3,7346;1,8622;5,166
15,4570;3,7310;4,1508;2,1727;5,989
15,4760;4,4293;4,6312;2,2806;6,802
15,4790;4,9462;5,0981;2,2630;7,455
15,5180;5,3959;5,6768;2,2512;8,149
15,5200;5,6879;6,2824;2,1657;8,747
15,5290;6,0077;6,9088;2,0110;9,374
15,5310;6,2710;7,3712;2,0219;9,887
15,5350;6,6128;7,8728;2,0949;10,493
15,5400;7,2311;8,3970;2,3489;11,328
15,5480;7,7600;8,8303;2,7081;12,063
15,5580;8,1939;9,4314;3,0009;12,849
15,5750;8,4617;10,1787;3,0326;13,579
15,5780;8,7689;10,6543;2,9422;14,109
15,6190;9,1823;10,9585;2,6349;14,538
15,6200;9,5552;11,1029;2,2312;14,817
15,6270;9,8327;11,1811;2,0873;15,035
15,6290;10,1758;11,2214;2,2061;15,308
15,6300;11,4965;10,8216;2,5231;15,989
15,6390;12,6723;10,2629;2,6813;16,526
15,6470;13,7519;9,6481;3,0211;17,068
15,6570;13,8688;9,5636;3,5222;17,211
15,6670;12,8394;9,8600;4,0523;16,688
15,6780;11,1752;10,3800;4,0399;15,778
15,6890;9,1620;10,9279;3,0436;14,582
15,6980;7,8172;10,9251;2,4082;13,648
15,7150;6,5155;10,8692;2,0457;12,837
15,7210;5,8339;10,5705;2,2322;12,278
15,7290;5,7416;9,8628;2,5754;11,699
15,7390;5,9270;9,0828;2,8134;11,205
15,7480;5,9143;8,2566;2,9493;10,576
15,7620;5,7497;7,9258;2,9680;10,232
15,7810;5,5465;7,6396;2,8778;9,870
15,7820;5,3046;7,6215;2,4606;9,606
15,7970;5,1081;7,7635;1,8330;9,472
15,7980;5,0647;7,9516;1,1862;9,502
15,8080;5,0779;8,2009;0,8300;9,681
15,8670;5,0663;8,3219;0,6691;9,766
15,8770;4,9700;8,4316;0,5030;9,800
15,8790;4,9409;8,5049;0,2865;9,840
15,8830;4,8391;8,4903;0,0104;9,772
15,8870;4,8033;8,4555;-0,1582;9,726
15,8900;4,8782;8,3022;-0,2696;9,633
15,8920;4,8733;8,0821;-0,3025;9,443
15,8940;4,8461;7,7419;-0,2241;9,136
15,9050;4,8539;7,3570;-0,0206;8,814
15,9120;4,7520;6,7940;0,3905;8,300
15,9200;4,6124;6,3284;0,7753;7,869
15,9300;4,5585;5,7555;1,1407;7,430
15,9450;4,4564;5,2451;1,3301;7,010
15,9680;4,3905;4,6645;1,6216;6,608
15,9740;4,2522;4,1516;1,9542;6,256
15,9750;4,2605;3,6492;2,3337;6,076
15,9990;4,1869;3,1694;2,7084;5,909
16,0000;4,0372;2,6832;3,0093;5,706
16,0010;3,8323;2,2968;3,1633;5,474
16,0300;3,6041;1,8196;3,2266;5,168
16,0320;3,2964;1,3627;3,2479;4,824
16,0750;2,9388;0,9127;3,2071;4,445
16,0840;2,5085;0,5476;3,1896;4,095
16,0840;1,9413;0,1087;3,1456;3,698
16,0850;1,6045;-0,2675;3,1301;3,528
16,0860;1,3715;-0,6604;3,1970;3,541
16,0870;1,3622;-1,1050;3,3005;3,738
16,0870;1,2643;-1,4152;3,2351;3,751
16,0960;1,1742;-1,6302;2,9839;3,597
16,1090;0,9041;-1,7001;2,5570;3,201
16,1170;0,8387;-1,7805;2,3707;3,081
16,1590;0,8716;-1,9909;2,2356;3,118
16,1600;0,6449;-2,3758;1,7935;3,046
16,1600;0,1124;-2,6793;1,3017;2,981
16,1610;-0,1819;-2,9669;0,9514;3,121
16,1670;0,4963;-3,8991;0,4614;3,958
16,1870;1,0956;-4,9695;0,1436;5,091
16,2100;0,7373;-5,9600;-0,0140;6,005
16,2120;-0,7520;-6,0011;0,0313;6,048
16,2140;-2,9447;-5,3551;0,3364;6,121
16,2450;-4,5920;-4,4295;0,7319;6,422
16,2450;-5,4725;-3,2236;1,3150;6,486
16,2460;-5,3211;-2,8907;1,6003;6,263
16,2650;-4,5770;-2,9193;1,6805;5,683
16,2660;-3,7764;-3,0024;1,6368;5,095
16,2660;-2,9941;-3,0971;0,9750;4,417
16,2770;-2,3846;-3,3511;0,3280;4,126
16,2940;-1,9543;-3,4163;-0,3131;3,948
16,2970;-1,8851;-3,2895;-0,5289;3,828
16,3410;-2,0688;-3,0444;-0,7287;3,752
16,3480;-2,4027;-2,6129;-0,9011;3,662
16,3510;-2,5110;-2,1223;-1,1055;3,469
16,3660;-2,3197;-1,6530;-1,4416;3,192
16,3680;-1,9461;-1,1888;-1,8770;2,954
16,3710;-1,8106;-0,7952;-2,3321;3,058
16,3730;-1,8526;-0,4437;-3,0488;3,595
16,3780;-1,9159;-0,1317;-3,9496;4,392
16,3860;-2,0839;0,0575;-4,5623;5,016
16,3970;-2,2586;0,2512;-4,8364;5,344
16,4100;-2,4136;0,3940;-4,5635;5,177
16,4380;-2,5607;0,4729;-4,1079;4,864
16,4380;-2,7573;0,5717;-3,0856;4,177
16,4410;-2,9240;0,6819;-2,2442;3,749
16,4460;-2,9967;0,7292;-1,5772;3,464
16,4630;-3,0802;0,8159;-1,1094;3,374
16,4670;-2,8694;0,8980;-0,8247;3,118
16,4790;-2,4806;0,9580;-0,7311;2,758
16,5100;-1,7331;1,0900;-0,6107;2,137
16,5140;-1,1874;1,2663;-0,4638;1,797
16,5150;-0,7962;1,4360;-0,4055;1,691
16,5170;-0,4845;1,6285;-0,3431;1,733
16,5290;-0,0181;1,8798;-0,1056;1,883
16,5570;0,6384;2,2153;0,2405;2,318
16,5620;1,6801;2,6103;0,6514;3,172
16,5650;2,6188;3,0298;1,0902;4,150
16,5670;3,4212;3,4940;1,2864;5,056
16,5770;4,3621;4,0328;1,4235;6,109
16,5980;5,4520;4,6198;1,6534;7,335
16,6010;6,0281;5,0162;1,6741;8,019
16,6550;6,4173;5,3645;1,5221;8,502
16,6630;6,8024;5,7326;1,4020;9,006
16,6640;7,1312;6,1485;1,4968;9,534
16,6670;7,5530;6,7384;1,8397;10,288
16,6680;8,0159;7,4863;2,1583;11,178
16,6700;8,7184;8,1110;2,3105;12,130
16,6720;9,5604;8,7253;2,2965;13,146
16,6780;10,2790;9,3860;2,2263;14,096
16,6850;10,6437;9,9511;2,2345;14,741
16,6970;10,8868;10,4944;2,3540;15,303
16,7300;11,6075;11,0137;2,6718;16,223
16,7330;12,9107;11,0170;2,9642;17,229
16,7350;14,6738;10,6907;3,2711;18,448
16,7400;15,4347;10,6399;3,6663;19,102
16,7470;15,6116;10,8329;4,0665;19,432
16,7610;14,7637;11,2207;4,0679;18,985
16,7680;12,1992;11,9106;3,2173;17,350
16,7770;10,3384;12,3490;2,2958;16,268
16,7860;8,3549;12,3111;1,3761;14,942
16,7990;7,1115;11,9025;0,8562;13,892
16,8360;6,4142;11,0905;1,0741;12,857
16,8370;6,2863;10,2200;1,7126;12,120
16,8380;6,2276;9,1215;2,4969;11,323
16,8390;5,9870;8,5248;2,9289;10,821
16,8460;5,4758;8,1211;3,1684;10,294
16,8710;4,7216;7,9098;3,2368;9,764
16,8800;4,1949;7,8837;3,1961;9,485
16,8820;4,0770;8,0885;3,0628;9,562
16,8890;4,3394;8,2453;2,4552;9,636
16,9000;4,3872;8,2324;1,7207;9,486
16,9060;4,3352;8,2760;0,9749;9,393
16,9450;4,2457;8,3193;0,2624;9,344
16,9460;4,1572;8,2479;-0,1823;9,238
16,9470;4,1041;8,1655;-0,4188;9,148
16,9490;4,0494;8,0055;-0,4625;8,983
16,9570;3,9150;7,8522;-0,4653;8,786
16,9670;3,7093;7,5764;-0,3669;8,444
16,9850;3,5618;7,2216;-0,1433;8,053
16,9920;3,5245;6,8244;0,3883;7,691
17,0230;3,5268;6,2944;0,7824;7,257
17,0280;3,5821;5,6542;1,1554;6,792
17,0290;3,5165;5,1380;1,3141;6,363
17,0310;3,5670;4,5408;1,4741;5,959
17,0370;3,5159;3,9832;1,6141;5,553
17,0470;3,3853;3,4318;1,7514;5,129
17,0570;3,2072;2,9498;1,9467;4,773
17,0680;2,8466;2,4520;2,1342;4,321
17,0900;2,7378;2,0292;2,3427;4,135
17,0960;2,6487;1,5499;2,4819;3,947
17,0970;2,5152;1,0022;2,7424;3,854
17,1370;2,4122;0,5470;3,0825;3,952
17,1400;2,2281;-0,0202;3,3198;3,998
17,1440;2,0296;-0,4885;3,2902;3,897
17,1460;1,8787;-0,8355;3,2136;3,815
17,1470;1,6938;-1,1767;2,9291;3,582
17,1590;1,6205;-1,6919;2,2904;3,276
17,1690;1,3039;-2,2815;1,4733;3,013
17,2090;0,5567;-2,9222;0,6269;3,040
17,2140;-0,6041;-3,6069;-0,1281;3,659
17,2150;-1,2820;-4,0548;-0,4636;4,278
17,2160;-1,9346;-4,4686;-0,6102;4,908
17,2160;-2,2987;-4,7632;-0,6639;5,330
17,2270;-2,3603;-4,9015;-0,5760;5,471
17,2370;-1,9570;-5,1541;-0,1915;5,516
17,2480;-0,5371;-5,9813;0,1869;6,008
17,2560;0,0635;-6,6287;0,3202;6,637
17,2650;0,0963;-7,0550;0,4312;7,069
17,2850;-0,8521;-6,9594;0,2680;7,016
17,2880;-2,5983;-6,3273;-0,0115;6,840
17,3350;-4,3230;-5,6030;0,1203;7,078
17,3420;-5,8431;-4,6377;1,0304;7,531
17,3440;-6,1547;-4,1528;1,8287;7,647
17,3460;-5,4607;-3,9352;2,6554;7,236
17,3480;-4,1996;-3,8120;3,1444;6,485
17,3500;-2,6613;-3,4859;2,9520;5,287
17,3570;-1,3170;-3,2319;2,2849;4,171
17,3700;-0,0453;-2,8973;1,4497;3,240
17,4240;0,5600;-2,5418;0,9404;2,767
17,4290;0,8587;-2,0003;0,2857;2,195
17,4300;0,7208;-1,2751;-0,5662;1,570
17,4320;0,3016;-0,5214;-1,5176;1,633
17,4370;-0,1605;0,1783;-2,6923;2,703
17,4430;-0,6401;0,7745;-3,6694;3,804
17,4470;-0,9100;1,1932;-3,9568;4,232
17,4490;-1,0966;1,4962;-3,8715;4,293
17,4570;-1,1654;1,6765;-3,4051;3,970
17,4720;-1,1658;1,7951;-2,8376;3,554
17,5310;-1,0624;1,8427;-2,2349;3,085
17,5320;-0,9037;1,9942;-1,2819;2,537
17,5330;-0,8168;2,1538;-0,6948;2,406
17,5340;-0,9145;2,3777;-0,4219;2,582
17,5350;-0,9759;2,6091;-0,4102;2,816
17,5370;-1,0240;2,8894;-0,3826;3,089
17,5470;-0,8208;3,1238;-0,2017;3,236
17,5490;-0,3262;3,2885;0,2737;3,316
17,5580;0,0040;3,3949;0,6836;3,463
17,5670;0,3621;3,5175;1,1230;3,710
17,5810;0,7782;3,7009;1,5353;4,082
17,5850;1,2602;3,8722;1,9002;4,494
17,6310;1,8558;4,0441;2,0860;4,914
17,6310;2,5365;4,3039;2,1365;5,433
17,6320;3,0357;4,5278;2,0893;5,838
17,6320;3,5031;4,8202;2,0222;6,293
17,6460;3,9470;5,1824;1,8984;6,785
17,6510;4,3667;5,4272;1,8351;7,203
17,6660;4,7890;5,6973;1,8498;7,669
17,6680;5,2835;5,9856;1,9386;8,216
17,6770;5,6272;6,3522;2,0516;8,731
17,6880;6,0260;6,7720;2,2488;9,340
17,7050;6,3831;7,2622;2,4133;9,965
17,7080;6,8308;7,7860;2,5064;10,657
17,7190;7,2915;8,4073;2,6079;11,430
17,7670;7,6603;9,1272;2,5666;12,189
17,7780;8,0303;9,6303;2,4513;12,776
17,7810;8,5049;9,9691;1,9514;13,249
17,7830;8,9706;10,1543;1,5512;13,638
17,7850;9,3991;10,2794;1,4192;14,001
17,7870;9,8139;10,3265;1,6485;14,341
17,7890;10,8720;10,0935;1,9566;14,964
17,8000;11,9176;9,8041;2,1924;15,587
17,8610;12,7123;9,4437;2,4278;16,021
17,8620;12,9457;9,2758;2,7041;16,154
17,8620;12,3903;9,3861;2,9876;15,829
17,8680;11,2791;9,6626;3,1248;15,177
17,8810;9,4578;10,2116;2,9146;14,220
17,8830;8,3523;10,5724;2,5472;13,712
17,8860;7,0608;10,7032;2,1064;12,994
17,8880;6,3836;10,5035;1,8296;12,427
17,8900;5,9462;10,0218;1,6272;11,766
17,9000;5,8831;9,2917;1,7125;11,130
17,9080;6,0307;8,3275;2,0654;10,487
17,9210;5,9222;7,7269;2,4256;10,033
17,9260;5,6547;7,2408;2,7142;9,580
17,9760;5,2260;6,8179;2,8195;9,041
17,9880;4,8179;6,6441;2,7925;8,669
17,9900;4,4206;6,6158;2,7702;8,425
17,9920;4,2567;6,6898;2,5940;8,343
17,9960;4,1205;6,6802;2,3243;8,186
17,9990;3,9493;6,6517;1,9529;7,978
18,0000;3,7446;6,6123;1,5098;7,747
18,0060;3,5560;6,5470;1,1856;7,544
18,0250;3,3716;6,4673;0,8559;7,343
18,0280;3,3120;6,3622;0,5257;7,192
18,0500;3,2329;6,1361;0,3328;6,944
18,0510;3,2023;5,9112;0,2628;6,728
18,0560;3,2217;5,5757;0,2351;6,444
18,0660;3,3359;5,1363;0,3402;6,134
18,0780;3,3260;4,7280;0,5914;5,811
18,0890;3,1824;4,1719;0,7422;5,299
18,1400;2,9867;3,6424;0,8143;4,780
18,1400;2,8267;3,0356;1,0698;4,284
18,1410;2,6514;2,5027;1,4656;3,930
18,1420;2,6080;1,9643;1,9272;3,791
18,1430;2,5371;1,4851;2,3272;3,749
18,1500;2,4684;1,0472;2,7053;3,809
18,1560;2,3132;0,7294;2,8936;3,776
18,1680;2,0172;0,4846;3,0389;3,679
18,1790;1,6353;0,1678;2,9789;3,402
18,1920;1,1513;-0,1772;2,8194;3,051
18,1990;0,6400;-0,4892;2,6170;2,738
18,2140;0,3054;-0,8612;2,5571;2,715
18,2170;0,1436;-1,2634;2,6102;2,903
18,2260;-0,0539;-1,6704;2,7162;3,189
18,2660;-0,3565;-2,0468;2,7907;3,479
18,2700;-0,5268;-2,3128;2,7162;3,606
18,2710;-0,5932;-2,5103;2,6969;3,732
18,2730;-0,9355;-2,5548;2,7932;3,899
18,2780;-1,0446;-2,6211;2,7297;3,926
18,2880;-0,9628;-2,7311;2,3943;3,757
18,2980;-1,1080;-2,9094;1,8726;3,633
18,3070;-1,4184;-2,9671;1,3183;3,543
18,3180;-1,7752;-3,0097;0,7708;3,578
18,3280;-1,5751;-3,3055;0,1646;3,665
18,3720;-0,9004;-3,9294;-0,1480;4,034
18,3730;-0,4376;-4,7409;-0,1807;4,765
18,3750;-0,5962;-5,0400;0,2232;5,080
18,3750;-1,6501;-4,9019;0,4715;5,194
18,3790;-3,0498;-4,3896;0,7003;5,391
18,3890;-4,5379;-3,5712;1,0948;5,877
18,3990;-5,1632;-3,0084;1,4416;6,147
18,4160;-5,3069;-2,6421;1,6375;6,150
18,4200;-4,7891;-2,6484;1,6580;5,718
18,4250;-4,0849;-2,7052;1,5660;5,144
18,4650;-3,3680;-2,7054;1,1437;4,469
18,4670;-2,4630;-2,7597;0,3903;3,720
18,4690;-1,9207;-2,6963;0,1526;3,314
18,4710;-1,5017;-2,5403;0,0800;2,952
18,4760;-1,2886;-2,2241;-0,0483;2,571
18,4880;-1,2516;-1,8621;-0,2906;2,262
18,4970;-1,1795;-1,4042;-0,7805;1,993
18,5110;-0,9497;-0,9292;-1,5270;2,024
18,5260;-0,6868;-0,5074;-2,0891;2,257
18,5290;-0,3837;0,0279;-2,8268;2,853
18,5620;-0,1892;0,5682;-3,6849;3,733
18,5630;-0,0523;1,0244;-4,4700;4,586
18,5640;-0,0425;1,3827;-5,0419;5,228
18,5680;-0,1878;1,6357;-5,2903;5,541
18,5770;-0,2906;1,7879;-5,1296;5,440
18,5920;-0,5488;1,7380;-4,5450;4,897
18,5970;-0,7569;1,6604;-3,6713;4,100
18,6300;-0,9898;1,6246;-2,6581;3,269
18,6370;-1,1638;1,6957;-2,0738;2,921
18,6390;-1,1443;1,8007;-1,6068;2,671
18,6390;-1,0179;1,9023;-1,2697;2,503
18,6450;-0,7157;1,9670;-0,8290;2,251
18,6570;-0,3804;2,0549;-0,3660;2,122
18,6700;0,1719;2,1833;0,3097;2,212
18,6770;0,6161;2,3143;0,9295;2,569
18,6890;1,1800;2,4613;1,4341;3,083
18,7000;1,5255;2,6435;1,6325;3,461
18,7150;1,9303;2,9129;1,7493;3,908
18,7210;2,5218;3,2196;1,6791;4,421
18,7310;3,1561;3,5874;1,5598;5,026
18,7410;3,8920;3,9929;1,4672;5,766
18,7750;4,5814;4,4622;1,4101;6,549
18,7780;5,0709;4,8466;1,4267;7,158
18,7800;5,5861;5,2717;1,4269;7,812
18,7850;6,0400;5,7913;1,4238;8,488
18,7870;6,4131;6,2666;1,4119;9,077
18,7990;6,7028;6,8413;1,5008;9,695
18,8120;6,8175;7,3957;1,5555;10,178
18,8590;7,0393;7,9395;1,6171;10,733
18,8650;7,8135;8,5565;1,8162;11,729
18,8680;8,9291;9,0835;1,9498;12,886
18,8700;10,1467;9,4933;2,1389;14,059
18,8710;10,9652;9,7917;2,1031;14,850
18,8720;11,8924;9,8578;1,8820;15,561
18,8770;12,8292;9,5957;1,7101;16,112
18,8930;13,8470;9,1759;1,6504;16,693
18,9060;14,2568;9,0493;1,7224;16,974
18,9070;14,3232;9,0978;1,7364;17,057
18,9390;13,2073;9,2314;1,6457;16,198
18,9400;11,4418;9,5269;1,1405;14,932
18,9400;10,2177;9,8106;0,8735;14,192
18,9450;8,9721;10,0381;0,8289;13,489
18,9560;7,7440;10,0875;1,0693;12,762
18,9650;6,8983;9,9325;1,3385;12,167
18,9770;6,3650;9,3999;1,5041;11,451
18,9980;6,0969;8,4893;1,6481;10,581
19,0020;5,9661;7,7519;1,8691;9,959
19,0510;5,7021;7,0512;2,1202;9,313
19,0540;5,2532;6,4242;2,2562;8,600
19,0570;4,6259;6,0871;2,1714;7,948
19,0580;3,9515;5,8621;1,8501;7,308
19,0590;3,3172;5,8658;1,6092;6,928
19,0630;3,0272;5,9487;1,5796;6,859
19,0700;3,0044;6,1070;1,7131;7,018
19,0810;3,0938;6,2390;1,7643;7,184
19,0870;3,0587;6,2549;1,5485;7,133
19,0960;2,8864;6,1949;1,1839;6,936
19,1090;2,5689;6,0962;0,7572;6,659
19,1170;2,3524;5,8816;0,5352;6,357
19,1520;2,1264;5,6499;0,4727;6,055
19,1530;1,9474;5,4040;0,4258;5,760
19,1530;2,0019;5,1232;0,4403;5,518
19,1570;2,2353;4,7966;0,4406;5,310
19,1670;2,5296;4,4908;0,4203;5,171
19,1760;2,6569;4,1498;0,4485;4,948
19,2160;2,7932;3,7546;0,4704;4,703
19,2180;2,8231;3,3068;0,5981;4,389
19,2200;2,8899;2,8226;0,9592;4,152
19,2220;2,8868;2,3075;1,4277;3,962
19,2710;2,9068;1,6961;2,0102;3,920
19,2730;2,8514;1,1863;2,4291;3,929
19,2730;2,6532;0,6641;2,8340;3,939
19,2740;2,3310;0,2223;3,0288;3,828
19,2750;1,9798;-0,1961;3,0814;3,668
19,2770;1,4904;-0,4941;3,0930;3,469
19,2880;1,1362;-0,8817;3,2686;3,571
19,2970;0,8650;-1,2484;3,3602;3,687
19,3120;0,5978;-1,6658;3,3513;3,790
19,3160;0,4042;-2,0679;3,2227;3,850
19,3530;0,1097;-2,5768;3,1008;4,033
19,3580;-0,2068;-3,0757;2,9836;4,290
19,3590;-0,5577;-3,4988;2,8510;4,548
19,3600;-0,8214;-3,7540;2,8333;4,774
19,3650;-1,1074;-3,8508;2,7218;4,844
19,3770;-1,2597;-3,8934;2,4494;4,769
19,3900;-1,5459;-3,9606;1,8798;4,649
19,3980;-1,8883;-3,9704;1,2550;4,572
19,4170;-2,4364;-3,8008;0,6102;4,556
19,4170;-2,7455;-3,7163;0,3595;4,634
19,4790;-2,4833;-3,8653;0,2382;4,600
19,4880;-1,4539;-4,5264;0,1416;4,756
19,4900;-0,6560;-5,4698;0,0027;5,509
19,4930;-0,8086;-5,7729;0,0122;5,829
19,4960;-1,9093;-5,3545;0,1241;5,686
19,4980;-3,1785;-4,7510;0,3385;5,726
19,4990;-4,2782;-3,9193;0,8274;5,861
19,5010;-4,9101;-3,0952;1,4028;5,971
19,5080;-4,8640;-2,6515;1,6444;5,779
19,5170;-4,4477;-2,5749;1,6106;5,386
19,5280;-3,8451;-2,6959;1,2133;4,850
19,5430;-3,4628;-2,7742;0,7833;4,506
19,5470;-2,9605;-2,8259;0,1827;4,097
19,5990;-2,4240;-2,8864;-0,3393;3,784
19,6080;-2,0781;-2,7822;-0,5207;3,511
19,6100;-1,8459;-2,5705;-0,4822;3,201
19,6120;-1,7530;-2,2496;-0,4638;2,889
19,6140;-1,6958;-1,8840;-0,6229;2,610
19,6160;-1,6211;-1,4794;-0,8491;2,353
19,6170;-1,4850;-1,0129;-1,2036;2,163
19,6270;-1,4214;-0,5912;-1,5695;2,198
19,6360;-1,3365;-0,1585;-1,8374;2,278
19,6550;-1,1844;0,2565;-2,0567;2,387
19,6580;-1,0391;0,5185;-2,1449;2,439
19,6670;-0,8909;0,8174;-2,2680;2,570
19,6770;-0,8528;1,0051;-2,3653;2,708
19,6980;-0,8778;1,1222;-2,2844;2,692
19,6990;-0,8679;1,2869;-1,8629;2,425
19,7090;-0,8113;1,4912;-1,2594;2,114
19,7170;-0,7228;1,7215;-0,9754;2,107
19,7300;-0,4850;1,9043;-0,6766;2,078
19,7370;-0,1799;2,1075;-0,3408;2,142
19,8070;0,1629;2,2459;-0,0184;2,252
19,8170;0,6027;2,4031;0,2400;2,489
19,8200;1,1634;2,5359;0,4215;2,822
19,8250;1,5365;2,7005;0,6331;3,171
19,8300;1,9304;2,9162;0,7602;3,579
19,8320;2,3735;3,1704;0,7854;4,038
19,8350;2,8521;3,4767;0,8408;4,575
19,8370;3,4463;3,8898;0,9413;5,281
19,8400;4,0589;4,3261;1,0242;6,020
19,8410;4,4754;4,6800;0,9317;6,542
19,8470;4,8471;5,0440;0,7687;7,038
19,8720;5,2546;5,4582;0,6632;7,605
19,8760;5,5104;5,8895;0,6625;8,093
19,8780;5,7704;6,3306;0,5848;8,586
19,8870;5,9135;6,8809;0,4898;9,086
19,9180;6,1358;7,2933;0,5477;9,547
19,9230;6,2493;7,8444;0,5606;10,045
19,9240;6,3213;8,3099;0,4979;10,453
19,9300;6,5535;8,7296;0,3953;10,923
19,9370;7,1315;8,9452;0,3193;11,445
19,9800;7,9827;9,0079;0,5462;12,048
19,9800;8,4394;9,0895;0,8417;12,432
19,9810;9,0252;9,2094;1,1438;12,945
19,9820;9,7514;9,2221;1,3459;13,489
19,9850;11,2034;8,8491;1,4672;14,352
19,9980;12,3727;8,2039;1,4128;14,913
20,0290;12,7961;7,7380;1,4777;15,027
20,0460;12,3271;7,7095;1,7869;14,649
20,0470;11,1241;7,9084;2,2427;13,832
20,0480;9,2257;8,4861;2,4324;12,769
20,0480;7,7191;9,0681;2,1266;12,097
20,0770;6,1933;9,6140;1,9211;11,596
20,0780;5,2107;9,6613;1,7509;11,116
20,0790;4,8986;9,2358;1,4763;10,558
20,0840;4,8109;8,4289;1,2821;9,790
20,0960;4,8625;7,4355;1,4101;8,996
20,1040;4,7490;6,6787;1,7448;8,379
20,1230;4,6759;6,0463;2,0855;7,923
20,1310;4,4104;5,6156;2,2135;7,476
20,1380;4,0168;5,4554;2,2259;7,131
20,1810;3,5611;5,4497;2,2427;6,885
20,1840;3,1867;5,5502;2,0923;6,733
20,1880;3,0193;5,6728;1,6974;6,647
20,1900;2,8981;5,7264;1,2404;6,537
20,1920;2,6410;5,7850;0,7840;6,407
20,2020;2,5258;5,8321;0,5099;6,376
20,2100;2,5783;5,7888;0,3017;6,344
20,2250;2,6406;5,6289;0,1571;6,219
20,2320;2,6497;5,4327;0,0181;6,044
20,2480;2,5313;5,2222;-0,1288;5,805
20,2490;2,3972;4,9177;-0,1731;5,474
20,2770;2,2200;4,5275;-0,1023;5,044
20,2780;2,0518;4,0605;0,1388;4,552
20,2790;1,8629;3,5498;0,3882;4,028
20,2850;1,7754;3,0332;0,6640;3,577
20,3030;1,8514;2,3634;0,8768;3,128
20,3370;1,9451;1,7287;1,1757;2,855
20,3380;1,9920;1,2270;1,3618;2,707
20,3380;1,9748;0,7192;1,5392;2,605
20,3390;1,9184;0,2093;1,6969;2,570
20,3570;1,6219;-0,2729;1,8059;2,443
20,3600;1,2359;-0,6141;1,9112;2,357
20,3980;0,7242;-0,9284;1,8473;2,191
20,3980;0,4080;-1,1912;1,8827;2,265
20,3980;0,0335;-1,4691;1,9733;2,460
20,3990;-0,1419;-1,7881;2,1144;2,773
20,4100;-0,2203;-2,1597;2,2264;3,110
20,4180;-0,3245;-2,4809;2,2981;3,397
20,4510;-0,5033;-2,7388;2,2647;3,589
20,4530;-0,6692;-2,9273;2,1630;3,701
20,4870;-0,8237;-3,0227;2,0774;3,759
20,4890;-1,1018;-3,0191;1,9782;3,774
20,4890;-1,2982;-2,8664;1,8183;3,634
20,4900;-1,3012;-2,8414;1,6091;3,515
20,4900;-1,1360;-2,8683;1,3074;3,351
20,4960;-1,0998;-2,9428;1,0953;3,327
20,5050;-0,9559;-3,0681;0,9263;3,344
20,5160;-0,1560;-3,5413;0,7123;3,616
20,5630;0,7059;-4,3737;0,5110;4,460
20,5680;0,9442;-5,0943;0,3221;5,191
20,5700;0,1828;-5,1378;0,4500;5,161
20,5720;-0,9595;-4,7458;0,5115;4,869
20,5740;-2,3449;-4,0598;0,5209;4,717
20,5790;-3,3872;-3,2076;0,8948;4,750
20,5890;-3,8797;-2,5036;1,2506;4,784
20,5970;-3,8557;-2,0141;1,3164;4,545
20,6110;-3,3652;-1,8776;0,9084;3,959
20,6180;-2,9212;-1,8597;0,4613;3,494
20,6250;-2,2703;-1,9025;-0,0212;2,962
20,6460;-1,6902;-1,9186;-0,4316;2,593
20,6480;-1,5164;-1,9686;-0,8057;2,612
20,6560;-1,4238;-2,0315;-1,1200;2,722
20,6700;-1,4342;-2,0240;-1,3000;2,801
20,6780;-1,5642;-1,8880;-1,3835;2,815
20,6870;-1,6741;-1,6099;-1,5127;2,772
20,7010;-1,6486;-1,3295;-1,8105;2,786
20,7070;-1,5857;-1,0504;-2,3550;3,027
20,7170;-1,5789;-0,7590;-2,9214;3,406
20,7350;-1,6069;-0,4583;-3,4463;3,830
20,7800;-1,5289;-0,2138;-3,6922;4,002
20,7800;-1,2680;0,1012;-3,7295;3,940
20,7800;-1,2630;0,3133;-3,5900;3,819
20,7810;-1,4369;0,4121;-3,4532;3,763
20,7810;-1,7819;0,4225;-3,2377;3,720
20,7880;-2,0831;0,4201;-2,7325;3,462
20,8020;-2,1498;0,5438;-2,3627;3,240
20,8070;-2,1132;0,6453;-2,0670;3,026
20,8170;-1,8511;0,7955;-1,8726;2,751
20,8440;-1,5642;0,9866;-1,7585;2,552
20,8450;-1,0952;1,2190;-1,6337;2,314
20,8510;-0,4685;1,4689;-1,4347;2,106
20,8570;-0,0610;1,7112;-1,3331;2,170
20,8660;0,1682;1,8582;-1,3587;2,308
20,8760;0,3452;1,9136;-1,5244;2,471
20,8850;0,5398;1,9981;-1,6818;2,667
20,9050;0,8079;2,0977;-1,6523;2,790
20,9110;1,2669;2,2986;-1,5155;3,031
20,9210;1,5763;2,4969;-1,3301;3,239
20,9300;1,9621;2,7060;-1,1787;3,544
20,9370;2,3252;2,8903;-1,1122;3,873
20,9480;2,7202;3,1494;-1,0770;4,299
20,9560;3,0508;3,3819;-1,1401;4,695
20,9690;3,4908;3,6796;-1,2032;5,213
20,9760;3,8933;3,9888;-1,2086;5,703
20,9860;4,4412;4,3463;-1,1858;6,326
20,9980;4,7151;4,5936;-1,2104;6,693
21,0060;4,8209;4,8607;-1,2015;6,951
21,0190;4,8898;5,2107;-1,1278;7,234
21,0510;4,9307;5,5724;-0,8607;7,490
21,0510;5,0956;5,9077;-0,5346;7,820
21,0510;5,4425;6,2577;-0,2280;8,296
21,0580;5,9444;6,5517;-0,0221;8,847
21,0660;6,5848;6,7851;0,1472;9,456
21,0760;7,3903;7,0974;0,3770;10,253
21,0870;8,0565;7,4006;0,6190;10,957
21,0970;8,4852;7,5587;0,7379;11,388
21,1060;9,0642;7,5867;0,8093;11,848
21,1200;10,0219;7,2112;0,8269;12,374
21,1260;10,7213;6,6574;0,7922;12,645
21,1360;10,9141;6,2188;1,0444;12,605
21,1490;10,4129;6,1400;1,8019;12,222
21,1570;9,5889;6,3621;2,3377;11,743
21,1670;8,1654;6,8952;2,7315;11,031
21,1790;6,4607;7,6863;2,7976;10,423
21,2020;4,7202;8,5815;2,4367;10,093
21,2080;3,9036;9,0094;2,2624;10,076
21,2110;3,8616;8,7860;2,1357;9,832
21,2180;4,0933;8,3575;2,1473;9,551
21,2260;4,3908;7,6058;2,3218;9,084
21,2520;4,3617;6,9215;2,5678;8,575
21,2530;4,0776;6,2503;2,8567;7,991
21,2550;3,7169;5,8764;2,9687;7,561
21,2910;3,1444;5,7118;2,9500;7,156
21,2910;2,7177;5,7024;2,8068;6,912
21,2920;2,4742;5,8379;2,4276;6,789
21,3020;2,5794;6,0141;2,1890;6,900
21,3480;2,6657;6,1818;2,0777;7,045
21,3490;2,6369;6,2541;1,9669;7,067
21,3490;2,4866;6,4394;1,8518;7,147
21,3500;2,3536;6,4130;1,7126;7,043
21,3520;2,2570;6,3502;1,4535;6,894
21,3560;2,2617;6,1778;1,1930;6,686
21,3660;2,1682;5,8946;0,9996;6,360
21,3760;2,0431;5,4826;0,8760;5,916
21,3880;1,8124;4,9950;0,7246;5,363
21,4090;1,6238;4,5793;0,6161;4,898
21,4100;1,5485;4,1447;0,5153;4,454
21,4170;1,5306;3,6913;0,4749;4,024
21,4280;1,4675;3,2617;0,5087;3,613
21,4390;1,3403;2,8677;0,6077;3,223
21,4490;1,2842;2,4371;0,7425;2,853
21,4570;1,2018;2,0481;0,9308;2,551
21,4680;1,1968;1,6635;1,1285;2,339
21,4810;1,1115;1,2838;1,3622;2,177
21,4850;0,9630;1,0101;1,4982;2,048
21,4960;0,8639;0,6821;1,6352;1,971
21,5330;0,7980;0,3894;1,7674;1,978
21,5380;0,7537;0,1000;1,8723;2,021
21,5420;0,6254;-0,1689;1,9278;2,034
21,5480;0,4681;-0,3625;1,9522;2,040
21,5480;0,3226;-0,5548;1,8796;1,986
21,6000;0,3130;-0,7451;1,7831;1,958
21,6040;0,4504;-0,9717;1,6723;1,986
21,6090;0,5782;-1,1802;1,7032;2,151
21,6110;0,6337;-1,3750;1,7254;2,295
21,6200;0,7146;-1,5906;1,7376;2,462
21,6240;0,7179;-1,7551;1,7565;2,585
21,6290;0,6285;-1,9486;1,8090;2,732
21,6310;0,4994;-2,0434;1,8363;2,792
21,6380;0,3348;-2,1326;1,8660;2,853
21,6450;0,1437;-2,3082;1,9009;2,994
21,6570;0,0193;-2,4109;2,0192;3,145
21,6700;0,1532;-2,5093;1,9909;3,207
21,6760;0,6816;-2,9422;1,8911;3,563
21,7470;1,5253;-3,7604;1,5201;4,333
21,7520;1,6988;-4,3714;1,2697;4,859
21,7560;1,1421;-4,6324;1,2965;4,944
21,7570;-0,2105;-4,3332;1,7193;4,667
21,7590;-2,2690;-3,5518;2,3096;4,806
21,7610;-3,6944;-2,7165;2,7004;5,322
21,7630;-4,6280;-1,9634;2,8186;5,764
21,7660;-4,5429;-1,7226;2,5244;5,475
21,7700;-3,6957;-1,8327;1,9138;4,547
21,7800;-2,7726;-2,1056;1,2730;3,707
21,7860;-1,9547;-2,3966;0,8190;3,199
21,8040;-1,2485;-2,5887;0,3253;2,892
21,8270;-0,5270;-2,7279;0,0338;2,779
21,8270;-0,4363;-2,8919;-0,1556;2,929
21,8280;-0,9770;-2,9258;-0,5231;3,129
21,8550;-1,5894;-2,7093;-0,8249;3,248
21,8620;-2,0007;-2,4086;-1,1478;3,335
21,8640;-2,0894;-2,1367;-1,5013;3,344
21,8680;-1,9345;-1,8393;-2,0795;3,384
21,8780;-1,8205;-1,6067;-2,6452;3,591
21,9250;-1,6873;-1,3089;-3,2811;3,915
21,9250;-1,4818;-1,1090;-4,0102;4,417
21,9260;-1,4293;-0,9241;-4,4971;4,808
21,9260;-1,4936;-0,7251;-4,7831;5,063
21,9300;-1,5519;-0,5876;-4,6786;4,964
21,9470;-1,5794;-0,4532;-4,5094;4,799
21,9550;-1,6634;-0,3288;-4,1682;4,500
21,9570;-1,7744;-0,3719;-3,8151;4,224
21,9660;-1,9013;-0,4038;-3,5427;4,041
21,9840;-1,9676;-0,3559;-3,2780;3,840
21,9930;-1,8601;-0,2998;-3,0363;3,573
21,9990;-1,7441;-0,1972;-3,0083;3,483
22,0380;-1,5675;-0,1473;-3,0685;3,449
22,0400;-1,3907;-0,0772;-3,1726;3,465
22,0420;-1,1372;-0,0332;-3,3181;3,508
22,0440;-0,8928;-0,0387;-3,5481;3,659
22,0530;-0,6606;-0,0020;-3,7473;3,805
22,0580;-0,3624;0,0931;-3,8742;3,892
22,0690;-0,0182;0,1543;-4,0047;4,008
22,0760;0,3300;0,2389;-4,1473;4,167
22,0870;0,7072;0,3577;-4,2757;4,349
22,1460;1,0449;0,4658;-4,3913;4,538
22,1470;1,5237;0,6646;-4,4014;4,705
22,1480;2,0065;0,9329;-4,2791;4,817
22,1480;2,4602;1,2418;-4,1576;4,988
22,1490;2,8761;1,4591;-4,1416;5,249
22,1490;3,2175;1,5894;-4,2246;5,543
22,1600;3,5729;1,8081;-4,3184;5,889
22,1670;4,0277;2,1119;-4,2935;6,254
22,2000;4,2908;2,4138;-4,2240;6,487
22,2030;4,5836;2,7283;-4,1131;6,736
22,2060;5,0620;3,0267;-3,9932;7,122
22,2090;5,7038;3,2412;-3,7601;7,562
22,2180;6,2701;3,4261;-3,3729;7,901
22,2430;6,6120;3,7202;-2,8528;8,105
22,2430;6,7764;4,0286;-2,5052;8,272
22,2460;6,8767;4,3411;-1,9659;8,367
22,2560;6,9776;4,6316;-1,5504;8,517
22,2670;7,8448;4,5766;-1,1647;9,157
22,2850;8,5821;4,1968;-0,9938;9,605
22,2950;8,9845;3,7766;-0,4823;9,758
22,2970;9,0165;3,6844;0,0607;9,740
22,3120;8,3572;3,9906;0,7852;9,294
22,3200;7,2735;4,7253;1,0394;8,736
22,3240;5,8156;5,7556;0,9443;8,236
22,3370;4,8417;6,5774;0,5350;8,185
22,3480;4,5252;6,8129;-0,1770;8,181
22,3560;4,7905;6,5083;-0,4851;8,096
22,3690;5,1429;5,9210;-0,7017;7,874
22,3860;5,1893;5,2976;-0,6983;7,449
22,3890;4,9422;4,7250;-0,4801;6,854
22,4380;4,5797;4,2480;-0,2336;6,251
22,4410;4,0758;3,9314;-0,0645;5,663
22,4450;3,6629;3,9274;-0,0019;5,370
22,4480;3,3291;4,1383;0,0087;5,311
22,4500;3,0891;4,4751;-0,1362;5,439
22,4530;2,8103;4,7145;-0,1987;5,492
22,4590;2,4020;4,9739;-0,2603;5,530
22,4710;2,0806;5,1045;-0,3952;5,526
22,4770;1,9593;5,0538;-0,4270;5,437
22,4920;1,8832;4,8756;-0,4740;5,248
22,5050;1,8049;4,5912;-0,4443;4,953
22,5050;1,6441;4,2222;-0,4175;4,550
22,5380;1,4593;3,7880;-0,3219;4,072
22,5390;1,3709;3,1960;-0,1069;3,479
22,5390;1,3178;2,6566;0,1402;2,969
22,5450;1,2295;2,0618;0,4338;2,439
22,5610;1,1790;1,5519;0,6787;2,064
22,5660;1,2098;0,9878;0,9491;1,828
22,5910;1,1215;0,4425;1,0526;1,600
22,5940;0,9031;-0,0958;1,0389;1,380
22,5970;0,7581;-0,5014;1,0247;1,370
22,6240;0,7361;-0,9283;1,0123;1,558
22,6250;0,7027;-1,3190;1,1389;1,879
22,6270;0,6627;-1,6927;1,3346;2,255
22,6400;0,5996;-2,0059;1,5887;2,628
22,6470;0,6597;-2,3430;1,9798;3,138
22,6580;0,8298;-2,6790;2,3208;3,640
22,7050;1,1234;-2,9762;2,7379;4,197
22,7130;1,2911;-3,2655;3,0934;4,680
22,7150;1,2562;-3,4809;3,1559;4,864
22,7170;1,0406;-3,6947;2,9164;4,821
22,7190;0,7004;-3,9785;2,3871;4,692
22,7210;0,5210;-4,2541;1,9659;4,715
22,7260;0,3970;-4,6814;1,3665;4,893
22,7380;0,0344;-5,4326;0,4916;5,455
22,7450;-0,4542;-6,0797;-0,1038;6,098
22,7570;-1,2714;-6,5824;-0,5455;6,726
22,7680;-2,3945;-6,8750;-0,5790;7,303
22,7850;-2,9332;-6,9206;-0,3974;7,527
22,7870;-2,9491;-6,9799;-0,1038;7,578
22,8030;-2,0033;-7,4979;-0,0354;7,761
22,8240;-0,9263;-8,2066;-0,1758;8,261
22,8290;-0,6882;-8,2295;-0,0243;8,258
22,8320;-1,5854;-7,5175;0,3953;7,693
22,8370;-2,5402;-6,8061;0,5203;7,283
22,8470;-3,5508;-6,0803;0,6110;7,068
22,8610;-3,8994;-5,6692;0,7753;6,924
22,8650;-3,9583;-5,4169;0,8750;6,766
22,9010;-3,5337;-5,2059;0,8382;6,348
22,9020;-2,3514;-5,0679;0,7344;5,635
22,9030;-1,6529;-4,9392;0,6015;5,243
22,9040;-0,6905;-4,7421;0,1781;4,795
22,9170;0,1117;-4,5206;-0,2737;4,530
22,9260;0,8930;-4,2132;-0,7216;4,367
22,9380;1,4276;-3,8361;-1,2034;4,266
22,9490;1,7234;-3,2214;-2,0587;4,194
22,9560;1,5611;-2,6787;-2,7716;4,159
22,9650;0,9296;-1,9542;-3,8970;4,458
22,9810;0,0896;-1,4300;-5,0990;5,296
22,9860;-1,0323;-1,0365;-6,2148;6,385
23,0230;-1,6897;-0,7401;-6,5082;6,765
23,0230;-2,3883;-0,4188;-5,9588;6,433
23,0240;-2,5069;-0,2421;-4,9692;5,571
23,0250;-2,3326;-0,1947;-3,6475;4,334
23,0330;-2,1240;-0,1939;-2,5195;3,301
23,0440;-2,0705;-0,0379;-1,9685;2,857
23,0530;-2,1317;0,2987;-1,9215;2,885
23,0670;-2,1943;0,7224;-2,2812;3,247
23,0740;-2,1527;1,0055;-2,7026;3,599
23,0850;-1,9967;1,2823;-3,0702;3,880
23,1220;-1,7095;1,5570;-3,0491;3,827
23,1260;-1,1050;1,7522;-2,6862;3,392
23,1280;-0,5337;1,8714;-2,1253;2,882
23,1300;0,0239;2,0151;-1,5794;2,560
23,1410;0,4210;2,0982;-1,3088;2,509
23,1470;0,8259;2,1775;-1,2588;2,647
23,1560;1,1193;2,2770;-1,2811;2,842
23,1680;1,4312;2,4318;-1,3520;3,129
23,1770;1,6844;2,5561;-1,5108;3,414
23,1850;2,1328;2,6732;-1,7531;3,843
23,2260;2,5573;2,8699;-1,8931;4,285
23,2270;3,0255;3,0016;-2,0685;4,737
23,2280;3,4286;3,1389;-2,2543;5,166
23,2290;3,7107;3,2929;-2,3646;5,496
23,2360;3,9201;3,4922;-2,4010;5,773
23,2460;3,9702;3,7414;-2,3728;5,949
23,2560;3,9767;3,9746;-2,3717;6,102
23,2680;4,0043;4,1785;-2,3898;6,261
23,2760;3,9320;4,4488;-2,4255;6,414
23,2930;4,0167;4,7136;-2,4941;6,676
23,2960;4,5722;4,9411;-2,6206;7,224
23,3340;5,4431;5,0023;-2,8073;7,908
23,3350;6,1145;5,0100;-2,9066;8,422
23,3350;6,8454;5,0370;-2,8796;8,973
23,3360;7,8270;4,8958;-2,6576;9,607
23,3440;9,3579;4,3942;-2,1841;10,566
23,3550;10,9894;3,7289;-1,6173;11,717
23,3710;12,2820;3,3500;-0,8308;12,758
23,3760;12,4975;3,8425;-0,0470;13,075
23,4230;11,4277;5,0252;0,7628;12,507
23,4270;9,9952;6,3300;1,0595;11,878
23,4290;8,1978;7,7638;0,5075;11,302
23,4300;7,2246;8,7128;-0,1650;11,320
23,4330;7,3017;8,9627;-0,7895;11,587
23,4380;7,7090;8,6536;-1,1823;11,650
23,4470;8,2564;7,9314;-1,4251;11,537
23,4570;8,7244;6,9117;-1,3291;11,210
23,4670;8,4837;5,8753;-1,1126;10,379
23,4780;7,8214;4,9683;-0,8287;9,303
23,4870;6,7461;4,4430;-0,5597;8,097
23,4980;5,8294;4,2891;-0,4091;7,249
23,5110;4,9399;4,2658;-0,4621;6,543
23,5490;4,3298;4,3329;-0,5580;6,151
23,5490;3,8419;4,3882;-0,6985;5,874
23,5500;3,4659;4,4591;-0,8375;5,709
23,5510;2,9299;4,4103;-0,9050;5,372
23,5560;2,6215;4,2790;-0,8931;5,097
23,5680;2,3173;4,0391;-0,8436;4,732
23,5770;2,0655;3,7129;-0,7846;4,321
23,5940;1,8753;3,3744;-0,7110;3,925
23,6080;1,7146;2,9906;-0,6729;3,512
23,6090;1,5458;2,4756;-0,5136;2,963
23,6560;1,3662;2,0713;-0,4136;2,516
23,6620;1,2104;1,5231;-0,3142;1,971
23,6640;1,0879;1,0003;-0,1933;1,491
23,6650;1,0457;0,3962;0,0002;1,118
23,6680;1,0265;-0,1443;0,2331;1,062
23,6720;1,0464;-0,6725;0,5455;1,358
23,6780;1,0507;-1,1128;0,7739;1,715
23,6850;0,9421;-1,5699;1,0433;2,107
23,6970;0,7391;-1,9174;1,2090;2,384
23,7050;0,5605;-2,2637;1,2719;2,656
23,7170;0,4166;-2,5301;1,3485;2,897
23,7650;0,1917;-2,8767;1,5387;3,268
23,7660;-0,0334;-3,2003;1,6608;3,606
23,7670;-0,2854;-3,4295;1,7667;3,868
23,7680;-0,4303;-3,7645;1,6242;4,122
23,7690;-0,5156;-4,1914;1,3516;4,434
23,7790;-0,6232;-4,5896;0,7530;4,693
23,7860;-0,9386;-5,0137;0,0402;5,101
23,8010;-1,3574;-5,3208;-0,3768;5,504
23,8050;-1,8759;-5,5103;-0,5970;5,851
23,8440;-2,4125;-5,6759;-0,3859;6,179
23,8470;-2,8387;-5,8930;-0,0211;6,541
23,8490;-3,0237;-6,0801;0,2334;6,795
23,8490;-2,9711;-6,0723;0,1818;6,763
23,8560;-2,9222;-5,9984;-0,0639;6,673
23,8650;-2,7964;-5,9231;-0,3967;6,562
23,8870;-1,9016;-6,2972;-0,7231;6,618
23,8940;-0,5337;-7,2380;-1,2351;7,362
23,8970;-0,1048;-7,7218;-1,4112;7,850
23,9400;-0,9559;-7,3216;-0,9845;7,449
23,9410;-2,2958;-6,5192;-0,5128;6,931
23,9420;-3,7584;-5,4690;0,2928;6,642
23,9430;-4,7316;-4,7029;0,8886;6,730
23,9490;-5,1004;-4,0355;1,3235;6,637
23,9560;-4,7005;-3,7120;1,6826;6,221
23,9690;-3,1900;-3,7849;1,7033;5,235
24,0140;-2,2752;-3,7525;1,3984;4,606
24,0210;-1,1996;-3,6165;0,9647;3,930
24,0220;-0,2168;-3,4294;0,5531;3,480
24,0230;0,5518;-2,9948;0,2311;3,054
24,0240;1,1650;-2,3725;0,0190;2,643
24,0300;1,3738;-1,4760;-0,3234;2,042
24,0380;1,2936;-0,7722;-0,8114;1,711
24,0470;0,9518;-0,0431;-1,7196;1,966
24,0550;0,4504;0,5246;-2,9056;2,987
24,0690;0,0442;1,0147;-3,8680;3,999
24,0750;-0,3818;1,4267;-4,5029;4,739
24,1180;-0,6102;1,7700;-4,4451;4,823
24,1270;-0,3986;1,9380;-4,1232;4,573
24,1290;-0,0505;1,9370;-3,3688;3,886
24,1310;0,2106;2,0474;-2,7814;3,460
24,1320;0,2497;2,2389;-2,5051;3,369
24,1360;0,1529;2,4191;-2,4031;3,413
24,1490;0,0088;2,6059;-2,2760;3,460
24,1570;0,0294;2,7344;-1,9861;3,380
24,1650;0,1511;2,8746;-1,4957;3,244
24,1840;0,3135;2,9692;-0,9475;3,132
24,1850;0,5682;2,9542;-0,4408;3,040
24,2430;0,8826;2,9221;-0,0096;3,053
24,2500;1,2331;2,9411;0,4113;3,216
24,2510;1,5664;3,0032;0,7147;3,462
24,2520;1,9625;3,1256;0,8996;3,799
24,2530;2,4551;3,2891;0,9195;4,206
24,2550;3,1035;3,5481;0,8191;4,785
24,2570;3,7435;3,8916;0,7478;5,451
24,2690;4,2644;4,2402;0,5967;6,043
24,2770;4,4530;4,4545;0,4654;6,316
24,2870;4,5044;4,7526;0,3459;6,557
24,3290;4,5680;5,1029;0,2171;6,852
24,3320;4,8116;5,4348;0,2614;7,263
24,3340;5,0885;5,7681;0,5015;7,708
24,3360;5,4307;6,1266;0,8500;8,231
24,3380;5,6158;6,5386;1,0625;8,684
24,3510;5,7685;7,0657;1,2226;9,203
24,3570;6,1993;7,5608;1,2868;9,862
24,3650;6,9312;7,8695;1,0597;10,540
24,3750;7,7666;8,0496;0,7674;11,212
24,3890;8,4186;8,2321;0,6652;11,793
24,3980;8,9753;8,2919;0,7474;12,242
24,4310;10,5625;7,9913;1,0430;13,286
24,4320;12,5206;7,3087;1,6265;14,589
24,4320;13,5022;6,8863;2,1935;15,315
24,4350;13,5735;7,0621;2,7036;15,538
24,4490;12,3619;7,9331;3,2375;15,041
24,4570;10,9542;8,9198;3,1268;14,468
24,4690;9,3407;10,0615;2,5156;13,957
24,4760;8,4067;10,5406;2,0753;13,641
24,4880;8,0083;10,5374;1,7149;13,346
24,5310;7,7420;9,9588;1,6195;12,718
24,5320;7,6774;8,7649;1,8128;11,792
24,5330;7,5399;7,7270;2,0289;10,985
24,5340;7,2994;6,7079;2,2847;10,173
24,5360;6,8153;5,8471;2,4142;9,299
24,5450;5,9299;5,3707;2,4449;8,366
24,5580;4,6912;5,3428;2,3373;7,484
24,5710;3,8061;5,5886;2,0368;7,062
24,5760;3,6572;5,7429;1,9845;7,092
24,6290;3,9411;5,9410;1,7858;7,350
24,6320;4,1129;5,9392;1,2808;7,337
24,6340;4,1232;5,9634;0,8385;7,298
24,6360;4,0685;5,9582;0,3135;7,222
24,6370;3,9970;5,8610;-0,2615;7,099
24,6380;3,8886;5,6786;-0,5804;6,907
24,6450;3,6434;5,3950;-0,8198;6,561
24,6570;3,2443;5,0049;-0,8546;6,025
24,6740;2,9361;4,6065;-0,5785;5,493
24,6780;2,7913;4,0919;-0,1641;4,956
24,7200;2,8255;3,3947;0,4081;4,436
24,7200;2,8499;2,8105;0,7125;4,066
24,7210;2,8075;2,1419;1,1104;3,702
24,7210;2,6620;1,5534;1,4220;3,394
24,7250;2,3713;1,0227;1,7363;3,112
24,7360;2,0430;0,6046;1,9932;2,918
24,7510;1,8205;0,1930;2,1975;2,860
24,7560;1,6249;-0,1858;2,3375;2,853
24,7680;1,2407;-0,6091;2,5342;2,887
24,7760;0,8532;-0,9455;2,5496;2,850
24,7850;0,5669;-1,3355;2,5654;2,947
24,7990;0,4241;-1,6693;2,5352;3,065
24,8070;0,1890;-1,9640;2,5275;3,206
24,8440;0,0063;-2,1693;2,5712;3,364
24,8450;-0,1702;-2,3400;2,5689;3,479
24,8460;-0,3508;-2,4674;2,4565;3,499
24,8470;-0,4886;-2,6689;2,2541;3,527
24,8550;-0,6851;-2,8285;1,8259;3,436
24,8740;-0,7426;-2,9812;1,3709;3,364
24,8760;-0,7369;-3,1574;1,2093;3,460
24,9260;-0,8068;-3,3185;1,1296;3,597
24,9290;-0,8741;-3,4457;1,2139;3,756
24,9320;-1,0879;-3,5429;1,1853;3,891
24,9350;-1,4054;-3,6132;0,9972;4,003
24,9370;-2,0019;-3,6271;0,7055;4,203
24,9390;-2,1137;-3,7629;0,3803;4,333
24,9440;-1,1927;-4,4688;-0,3291;4,637
24,9580;-0,3054;-5,6339;-1,2700;5,783
24,9650;-0,1926;-6,5645;-1,9865;6,861
24,9760;-0,9840;-6,5897;-1,7685;6,893
25,0140;-3,0129;-5,8674;-0,9519;6,664
25,0180;-4,3916;-4,9954;-0,1316;6,653
25,0190;-5,0522;-4,0506;0,7761;6,522
25,0190;-5,0585;-3,7212;1,1815;6,390
25,0240;-4,7161;-3,7633;1,4102;6,196
25,0360;-4,1751;-3,8597;1,5236;5,886
25,0460;-3,4884;-3,9741;1,3812;5,465
25,0560;-2,9007;-4,0081;0,9924;5,046
25,0650;-2,2535;-3,9273;0,6245;4,571
25,0770;-1,7155;-3,6614;0,4080;4,064
25,0880;-1,3375;-3,1863;0,4031;3,479
25,1450;-0,8615;-2,5389;0,3725;2,707
25,1520;-0,3080;-1,8093;0,0955;1,838
25,1540;-0,0775;-1,1880;-0,2856;1,224
25,1570;-0,1147;-0,5011;-0,9932;1,118
25,1590;-0,4313;0,1378;-1,9862;2,037
25,1600;-0,8033;0,7080;-2,8071;3,004
25,1620;-1,1479;1,1799;-3,3653;3,746
25,1680;-1,1224;1,4854;-3,3589;3,840
25,1790;-0,9256;1,6525;-3,0510;3,591
25,1920;-0,6149;1,7688;-2,6383;3,235
25,1980;-0,4360;1,9478;-2,4296;3,144
25,2040;-0,2907;2,1880;-2,5125;3,344
25,2420;-0,1603;2,4501;-2,5701;3,554
25,2420;0,0086;2,6620;-2,3816;3,572
25,2430;0,3343;2,9111;-2,1328;3,624
25,2450;0,7183;3,0715;-1,6387;3,555
25,2570;1,0253;3,1147;-1,3198;3,535
25,2650;1,3295;3,0430;-1,1284;3,507
25,2760;1,5564;2,9075;-0,8215;3,399
25,2940;1,8293;2,7899;-0,2662;3,347
25,3000;2,0853;2,8266;0,2552;3,522
25,3060;2,4553;2,9872;0,6603;3,923
25,3540;3,0319;3,1643;1,0268;4,501
25,3550;3,4750;3,4477;1,2528;5,053
25,3560;4,3039;3,9500;1,5155;6,035
25,3570;5,2817;4,6088;1,8902;7,260
25,3600;5,7992;5,1142;2,0939;8,011
25,3650;6,2235;5,5787;2,0204;8,599
25,3770;6,5321;6,0777;1,6242;9,069
25,3870;6,6925;6,4889;1,3014;9,412
25,3970;6,8588;6,9340;1,0220;9,806
25,4170;7,0822;7,3436;0,8262;10,236
25,4180;7,2509;7,7625;0,7403;10,648
25,4240;7,5598;8,1977;0,6789;11,172
25,4580;8,2038;8,5765;0,7087;11,890
25,4590;9,1952;8,8094;0,7108;12,754
25,4600;10,2461;8,9320;0,6924;13,610
25,4710;11,2488;9,1395;0,9087;14,522
25,4760;11,6269;9,2643;0,9773;14,899
25,4920;12,0551;9,1894;0,9070;15,185
25,4960;12,9368;8,6405;0,6448;15,570
25,5050;13,8842;7,5309;0,4859;15,803
25,5440;14,1527;6,5981;0,5467;15,625
25,5470;13,3144;6,1084;1,3153;14,708
25,5490;11,7984;6,3714;2,1109;13,574
25,5510;9,4490;7,3772;2,9500;12,345
25,5560;7,3777;8,3110;2,8441;11,471
25,5670;6,1613;9,0369;2,4355;11,205
25,5780;5,6585;9,2764;2,2131;11,089
25,5870;5,6657;9,0106;2,1583;10,860
25,5980;5,9992;8,4383;2,2183;10,588
25,6450;6,5737;7,6260;2,2767;10,322
25,6480;6,8541;6,6549;2,4260;9,857
25,6490;6,6851;5,9338;2,5015;9,282
25,6510;6,0405;5,4124;2,4761;8,480
25,6530;4,9642;5,2512;2,2025;7,554
25,6580;4,4731;5,3196;1,8687;7,197
25,6700;4,1737;5,5464;1,5285;7,108
25,6780;4,1912;5,7499;1,1774;7,212
25,6940;4,3872;5,9521;0,8755;7,446
25,6960;4,4662;6,0584;0,6297;7,553
25,7100;4,5819;6,0959;0,3150;7,632
25,7520;4,6191;5,9952;0,1771;7,570
25,7560;4,6376;5,8388;0,0918;7,457
25,7590;4,6558;5,5796;0,1492;7,268
25,7610;4,5414;5,2021;0,3010;6,912
25,7640;4,3007;4,8312;0,3782;6,479
25,7690;4,0226;4,4056;0,4880;5,986
25,7780;3,8658;4,0273;0,5428;5,609
25,7970;3,7271;3,5399;0,5602;5,171
25,7980;3,5167;3,0803;0,6388;4,718
25,8060;3,1579;2,6548;0,7105;4,186
25,8410;2,7367;2,2044;0,8339;3,612
25,8440;2,4030;1,6951;0,9818;3,100
25,8450;2,1974;1,2259;1,2142;2,794
25,8460;1,9306;0,7326;1,5560;2,586
25,8570;1,5896;0,2964;1,8988;2,494
25,8660;1,2669;-0,0907;2,0894;2,445
25,8770;0,9183;-0,4507;2,3472;2,560
25,9250;0,4730;-0,7839;2,2805;2,457
25,9280;0,1351;-1,0648;2,0818;2,342
25,9300;-0,2577;-1,3539;1,7412;2,221
25,9310;-0,6394;-1,6688;1,2936;2,206
25,9320;-0,8195;-2,0364;0,9810;2,404
25,9380;-0,9782;-2,4667;0,6926;2,742
25,9480;-1,3218;-2,9073;0,4686;3,228
25,9590;-1,5401;-3,1968;0,3389;3,565
25,9690;-1,7822;-3,4770;0,1204;3,909
25,9790;-2,0681;-3,6766;-0,0993;4,219
25,9870;-2,4773;-3,8054;-0,5107;4,569
26,0010;-2,8688;-3,9122;-0,8903;4,932
26,0110;-3,3311;-4,0028;-1,1354;5,330
26,0580;-3,6377;-4,0397;-1,0964;5,546
26,0650;-3,6047;-4,1449;-0,7573;5,545
26,0670;-2,6246;-4,6884;-0,3794;5,386
26,0690;-1,1531;-5,6925;-0,1353;5,810
26,0730;-0,5991;-6,1993;0,2712;6,234
26,0750;-1,4020;-5,8508;0,9134;6,085
26,0780;-2,6981;-5,0985;1,2760;5,908
26,0850;-3,9164;-4,1777;1,6136;5,949
26,0970;-4,5585;-3,2953;2,1067;6,006
26,1140;-4,5852;-2,5047;2,5968;5,834
26,1210;-4,0649;-2,0514;2,8319;5,362
26,1280;-3,0293;-1,9696;2,5155;4,403
26,1910;-2,3209;-1,9001;1,9535;3,580
26,1990;-1,3367;-1,9000;1,2999;2,662
26,2010;-0,2255;-1,9675;0,5708;2,061
26,2030;0,6883;-1,8424;0,0841;1,969
26,2080;1,3959;-1,5117;-0,2601;2,074
26,2100;1,7203;-0,9614;-0,5677;2,051
26,2120;1,8289;-0,4250;-0,8380;2,056
26,2140;1,6950;0,1977;-1,3223;2,159
26,2160;1,4007;0,7783;-1,8247;2,428
26,2260;0,9838;1,3750;-2,4484;2,975
26,2370;0,7280;1,8720;-2,9644;3,581
26,2520;0,6011;2,3414;-3,4483;4,211
26,2580;0,7208;2,6451;-3,6306;4,549
26,2700;0,9501;2,9022;-3,5408;4,676
26,2950;1,1320;3,0779;-3,1907;4,576
26,3070;1,2110;3,1920;-2,4973;4,230
26,3080;1,2297;3,2763;-1,7390;3,908
26,3100;1,1478;3,3135;-0,8531;3,609
26,3270;0,9609;3,3820;-0,4239;3,541
26,3290;0,6963;3,4279;-0,2145;3,504
26,3370;0,5188;3,4446;-0,1075;3,485
26,3650;0,5894;3,4379;0,0413;3,488
26,3660;0,8971;3,3862;0,3908;3,525
26,3690;1,3653;3,3329;1,0052;3,739
26,3770;1,7145;3,3667;1,5040;4,066
26,3850;2,1727;3,4703;1,9785;4,547
26,4000;2,6329;3,6438;2,2554;5,030
26,4390;3,0298;3,8023;2,3251;5,389
26,4410;3,5065;4,0580;2,3414;5,852
26,4440;3,8680;4,3571;2,4214;6,309
26,4460;4,1409;4,6165;2,4597;6,672
26,4480;4,4186;4,9153;2,4732;7,057
26,4590;4,6604;5,2019;2,5805;7,446
26,4660;4,9819;5,4881;2,6282;7,864
26,4810;5,2757;5,7969;2,6889;8,287
26,4880;5,7462;6,2019;2,7846;8,902
26,4960;6,1552;6,5775;2,8897;9,461
26,5380;6,4711;7,1342;2,9705;10,080
26,5450;6,7141;7,6252;2,9591;10,582
26,5480;7,3530;8,1639;2,7346;11,322
26,5490;8,2857;8,4316;2,3516;12,053
26,5500;9,3724;8,6063;1,9198;12,868
26,5580;10,1351;8,7034;1,8941;13,493
26,5670;11,4422;8,4706;2,0934;14,389
26,5780;13,0593;7,8668;2,4650;15,444
26,5870;14,0022;7,4259;2,8787;16,109
26,6100;14,2178;7,5554;3,6509;16,509
26,6120;13,2404;8,4948;4,5400;16,373
26,6220;12,1540;9,4631;4,8342;16,144
26,6280;11,1783;10,2622;4,3514;15,786
26,6390;10,4232;10,5278;3,4901;15,220
26,6470;9,7027;10,6270;2,8033;14,661
26,6580;8,7654;10,4397;2,3285;13,829
26,6690;8,2339;9,6583;1,9701;12,844
26,6790;8,1743;8,8324;1,6923;12,153
26,6870;8,0913;7,7767;1,5265;11,326
26,6980;7,7536;6,9123;1,5783;10,507
26,7060;7,0463;6,2983;1,7536;9,612
26,7420;6,2215;5,9304;1,8593;8,794
26,7500;5,3625;5,6570;1,8452;8,010
26,7510;4,9485;5,4917;1,7348;7,593
26,7520;4,6730;5,3915;1,7146;7,338
26,7590;4,5165;5,3259;1,7668;7,203
26,7670;4,6862;5,3387;1,7453;7,315
26,7810;4,7785;5,2354;1,5173;7,249
26,7890;4,6267;5,0887;1,1285;6,970
26,8240;4,3932;4,9411;0,9294;6,677
26,8250;4,0227;4,6839;0,7935;6,225
26,8250;3,6072;4,4156;0,8094;5,759
26,8260;3,1844;4,1515;0,9804;5,323
26,8370;2,8810;3,7967;1,2366;4,924
26,8510;2,5484;3,3757;1,3928;4,453
26,8580;2,2612;3,0550;1,3851;4,045
26,8690;1,9600;2,7601;1,2310;3,602
26,8850;1,7448;2,3532;0,9513;3,080
26,8880;1,5964;1,9805;0,6780;2,633
26,9430;1,4450;1,5328;0,3560;2,136
26,9460;1,1678;1,1760;0,0782;1,659
26,9480;0,9431;0,8475;-0,0551;1,269
26,9500;0,6144;0,4670;-0,1047;0,779
26,9550;0,3827;0,0576;0,1158;0,404
26,9600;0,2593;-0,3063;0,6154;0,735
26,9620;0,1571;-0,6665;1,1099;1,304
26,9700;-0,1414;-0,9551;1,6608;1,921
26,9790;-0,4575;-1,1561;1,8716;2,247
26,9900;-0,9058;-1,1766;1,7810;2,319
26,9990;-1,1098;-1,2519;1,4790;2,233
27,0110;-1,1886;-1,3370;0,9619;2,031
27,0180;-1,2230;-1,5154;0,5522;2,024
27,0690;-1,2551;-1,8440;0,2778;2,248
27,0790;-1,2783;-2,1692;0,1832;2,525
27,0800;-1,3267;-2,5640;0,1255;2,890
27,0830;-1,4028;-2,8623;-0,0082;3,188
27,0850;-1,5978;-2,8938;-0,2396;3,314
27,0870;-1,8859;-2,7512;-0,5685;3,384
27,0900;-1,9944;-2,6343;-0,9242;3,431
27,1000;-2,0664;-2,6832;-1,0242;3,538
27,1070;-2,1524;-2,7088;-1,0773;3,624
27,1200;-2,2073;-2,7838;-0,9059;3,666
27,1270;-1,9485;-3,0308;-0,6662;3,664
27,1800;-0,8990;-3,7140;-0,6177;3,871
27,1890;0,7311;-5,3547;-1,1790;5,532
27,1910;1,2196;-6,2622;-1,5912;6,575
27,1940;0,6191;-6,2634;-1,5861;6,491
27,1960;-1,0610;-5,0331;-0,9323;5,228
27,1990;-1,8008;-3,7535;0,0361;4,163
27,2070;-2,0427;-2,8107;0,7260;3,550
27,2130;-1,9397;-1,9465;1,4118;3,089
27,2270;-1,7248;-1,4984;1,7879;2,901
27,2310;-1,0876;-1,3211;2,0232;2,650
27,2410;-0,5291;-1,2748;1,8802;2,332
27,2980;0,0228;-1,2097;1,3409;1,806
27,3100;0,5332;-1,1463;0,7671;1,479
27,3130;0,9895;-1,1738;0,3012;1,564
27,3160;1,2571;-1,0306;0,3544;1,664
27,3190;1,2851;-0,7944;0,8245;1,721
27,3210;0,9199;-0,4549;1,2982;1,655
27,3230;0,4554;-0,0751;1,7342;1,795
27,3290;0,0016;0,2517;2,1230;2,138
27,3570;-0,2611;0,5883;2,2399;2,331
27,4250;-0,4046;0,8628;2,1005;2,307
27,4380;-0,5869;1,1668;1,8535;2,267
27,4410;-0,6553;1,5250;1,6052;2,309
27,4450;-0,5955;1,7915;1,3985;2,349
27,4480;-0,5331;2,0289;1,1328;2,384
27,4510;-0,6370;2,2394;0,8384;2,475
27,4530;-0,7477;2,3903;0,7577;2,617
27,4550;-0,8916;2,5398;0,9632;2,859
27,4580;-0,9083;2,6073;1,1645;2,997
27,4610;-0,9116;2,6270;1,5343;3,176
27,4700;-0,8583;2,5847;1,9846;3,370
27,4710;-0,7199;2,5326;2,4109;3,570
27,4710;-0,5731;2,5066;2,7124;3,737
27,4750;-0,3393;2,4388;3,0418;3,913
27,4830;-0,1173;2,3878;3,2725;4,053
27,4970;0,2172;2,3225;3,5170;4,220
27,4990;0,6647;2,2598;3,7683;4,444
27,5500;1,2306;2,1765;4,1855;4,875
27,5570;1,7080;2,1916;4,5523;5,333
27,5590;2,2239;2,2219;4,9951;5,902
27,5610;2,6005;2,2740;5,2985;6,325
27,5630;2,8734;2,3857;5,4574;6,613
27,5670;3,0711;2,5861;5,4416;6,762
27,5700;3,3821;2,8792;5,1626;6,810
27,5790;3,4937;3,1938;4,9645;6,859
27,5990;3,6271;3,6943;4,7445;7,022
27,6010;3,8740;4,2308;4,5800;7,341
27,6150;4,2278;4,7285;4,5416;7,801
27,6190;4,5189;5,3721;4,6019;8,394
27,6560;4,9792;6,0223;4,6404;9,088
27,6600;5,5419;6,3997;4,6455;9,657
27,6600;6,2471;6,6553;4,5220;10,187
27,6600;6,8980;6,7272;4,3916;10,589
27,6680;7,3312;6,7681;4,4828;10,938
27,6770;7,8281;6,8659;4,8395;11,482
27,6890;8,2606;6,9409;5,4628;12,094
27,7310;9,0653;6,8908;5,8316;12,793
27,7320;10,1701;6,5401;6,0027;13,499
27,7320;10,9370;6,0403;6,0103;13,865
27,7330;11,0595;6,0283;6,2969;14,082
27,7390;10,3638;6,4884;6,8548;14,018
27,7500;8,4010;7,6319;7,1957;13,439
27,7720;6,9813;8,6246;6,9247;13,080
27,7880;5,8636;9,3281;6,2055;12,645
27,7890;5,5821;9,4005;5,5578;12,264
27,7900;5,3969;9,1796;5,0818;11,799
27,8000;5,3460;8,6967;4,9336;11,338
27,8530;5,6396;7,9763;4,9009;10,929
27,8540;5,7102;7,4567;4,6764;10,492
27,8550;5,5984;7,0249;4,2425;9,934
27,8550;5,3259;6,8761;3,7235;9,461
27,8560;4,8034;6,8411;3,1873;8,946
27,8710;4,2633;6,8699;2,7699;8,547
27,8750;3,9097;6,9987;2,6064;8,430
27,8800;3,7773;7,0358;2,4542;8,354
27,8890;3,8366;7,0469;2,4272;8,383
27,9090;4,1546;7,0319;2,4469;8,526
27,9100;4,4213;6,9066;2,2705;8,509
27,9170;4,5084;6,7343;1,8938;8,322
27,9500;4,3795;6,4284;1,4513;7,913
27,9510;4,1704;6,1570;1,2300;7,538
27,9510;3,9204;5,9032;1,2124;7,189
27,9590;3,6448;5,5711;1,3810;6,799
27,9680;3,3713;5,1675;1,6221;6,380
27,9810;3,0585;4,6756;1,9425;5,915
27,9970;2,7093;4,0777;2,4120;5,458
28,0010;2,4536;3,5407;2,6689;5,067
28,0070;2,1781;2,8981;2,9230;4,657
28,0530;1,8356;2,2947;3,0256;4,218
28,0550;1,5033;1,6960;3,1124;3,850
28,0570;1,2535;1,1789;3,0872;3,534
28,0580;0,9327;0,6571;3,0907;3,295
28,0600;0,6351;0,3118;3,0813;3,162
28,0700;0,3942;-0,0250;3,0339;3,059
28,0780;0,1385;-0,3481;2,8986;2,923
28,0880;-0,2356;-0,6425;2,7804;2,863
28,1000;-0,6478;-0,8433;2,7409;2,940
28,1090;-1,0464;-1,1033;2,7208;3,117
28,1190;-1,2358;-1,3752;2,7675;3,328
28,1640;-1,3789;-1,6319;2,8841;3,589
28,1640;-1,3763;-1,8536;3,1618;3,915
28,1650;-1,2023;-2,1131;3,4627;4,231
28,1650;-0,8791;-2,2125;3,7625;4,452
28,1690;-0,8342;-2,1063;3,7808;4,408
28,1790;-0,8699;-1,9357;3,4765;4,073
28,1900;-0,6951;-1,7682;2,9703;3,526
28,2080;-0,4487;-1,7873;2,5022;3,108
28,2120;-0,4277;-1,8736;2,3425;3,030
28,2190;-0,4245;-1,9824;2,4143;3,153
28,2290;0,5542;-2,6503;2,5186;3,698
28,2400;1,5961;-3,7169;2,2412;4,625
28,2460;2,2731;-4,9723;1,6251;5,704
28,2990;1,9342;-5,5827;1,4935;6,094
28,3050;0,3011;-5,3952;1,9945;5,760
28,3070;-1,4370;-4,7219;2,5708;5,565
28,3090;-3,1127;-3,8716;3,3336;5,983
28,3120;-3,8363;-3,2407;3,6629;6,216
28,3140;-4,0708;-2,6032;4,1982;6,401
28,3200;-3,4300;-2,3951;4,3168;6,011
28,3260;-2,3347;-2,6089;3,7535;5,133
28,3420;-1,6108;-2,6753;2,8243;4,211
28,3490;-0,8029;-2,6982;1,5849;3,231
28,3840;-0,2839;-2,6200;1,0127;2,823
28,3850;0,2460;-2,4184;0,7962;2,558
28,3850;0,3105;-2,0029;0,8920;2,214
28,3870;0,0681;-1,3752;1,0566;1,736
28,3970;-0,3725;-0,7310;0,9962;1,291
28,4100;-0,6360;-0,3231;0,6197;0,945
28,4200;-0,6798;-0,0595;0,1666;0,702
28,4390;-0,7491;0,2940;-0,5790;0,991
28,4390;-0,9620;0,6718;-1,7182;2,081
28,4460;-1,2107;0,9146;-2,7743;3,162
28,4800;-1,4042;1,0275;-3,5260;3,932
28,4800;-1,6414;1,1847;-3,7991;4,305
28,4810;-1,8202;1,3169;-3,3983;4,074
28,4880;-2,0770;1,3906;-2,4769;3,519
28,4970;-2,3504;1,3810;-1,2810;3,012
28,5080;-2,5120;1,4306;-0,2653;2,903
28,5680;-2,4912;1,5644;0,6278;3,008
28,5750;-2,2317;1,6081;1,2542;3,023
28,5780;-1,9685;1,7084;1,4948;3,005
28,5800;-1,7018;1,7968;1,4276;2,857
28,5810;-1,5173;1,8520;1,1630;2,662
28,5850;-1,3609;1,8620;0,9548;2,496
28,5890;-1,2175;1,8948;0,9642;2,450
28,5910;-1,0580;1,9583;1,2460;2,551
28,6000;-0,8321;2,0586;1,5869;2,729
28,6090;-0,5251;2,1698;2,0421;3,026
28,6200;-0,1854;2,2735;2,3627;3,284
28,6310;0,3060;2,4614;2,5716;3,573
28,6430;0,8227;2,6873;2,4562;3,732
28,6520;1,2979;2,8516;2,1577;3,804
28,6580;1,7471;3,0164;1,9122;3,976
28,6670;2,3242;3,2397;1,7074;4,337
28,7090;2,9156;3,4282;1,7487;4,828
28,7140;3,3741;3,6253;1,9732;5,331
28,7150;3,8426;3,8638;2,2435;5,893
28,7180;4,1241;4,1431;2,5514;6,378
28,7230;4,2980;4,4569;2,7058;6,757
28,7300;4,5655;4,8834;2,8108;7,252
28,7430;5,1477;5,2854;2,8112;7,895
28,7480;6,0110;5,6636;2,6868;8,685
28,7580;7,0788;6,1327;2,7024;9,748
28,7850;7,9592;6,6305;2,9426;10,769
28,7860;8,7493;6,9693;3,2390;11,645
28,7910;9,9392;7,0606;3,4788;12,678
28,7980;11,6608;6,7980;3,6777;13,990
28,8110;13,1081;6,4631;3,7988;15,101
28,8170;13,7585;6,6230;4,0042;15,786
28,8280;13,4675;7,1697;4,2798;15,846
28,8820;12,4668;7,8876;4,3167;15,371
28,8830;10,3381;9,0375;3,9664;14,293
28,8840;8,5007;9,8867;3,3204;13,455
28,8850;6,9519;10,1984;2,6471;12,623
28,8850;6,0730;9,9956;1,9363;11,855
28,8900;5,6541;9,1620;1,3080;10,845
28,8980;5,6484;8,4077;1,2414;10,205
28,9140;5,8014;7,3333;1,5771;9,483
28,9280;5,6973;6,2966;2,0675;8,740
28,9450;5,3250;5,7048;2,3119;8,139
28,9460;4,5290;5,2970;2,4051;7,373
28,9520;3,5429;5,1363;2,2715;6,640
28,9830;2,9998;5,1499;2,1538;6,337
28,9830;2,6700;5,2620;2,0131;6,235
28,9840;2,6367;5,4055;2,1363;6,382
28,9870;2,8889;5,6081;2,2070;6,683
29,0050;3,0080;5,6340;2,1417;6,736
29,0150;3,0177;5,7762;2,0182;6,822
29,0230;2,9385;5,7305;1,9807;6,738
29,0380;2,9755;5,6315;1,8514;6,633
29,0400;2,9691;5,4434;1,7003;6,429
29,0540;2,8871;5,2263;1,4550;6,145
29,0580;2,6830;4,9711;1,1628;5,767
29,0980;2,3735;4,5672;0,9160;5,228
29,0990;2,0965;4,1725;0,9760;4,771
29,1120;1,9118;3,6879;1,4066;4,386
29,1130;1,7778;3,2040;1,8836;4,120
29,1140;1,6635;2,6528;2,3018;3,886
29,1500;1,5108;2,1233;2,5880;3,673
29,1560;1,3549;1,5925;2,8320;3,520
29,1580;1,2777;1,1318;2,8926;3,359
29,1590;1,1564;0,6615;2,9224;3,212
29,1590;0,9990;0,2158;2,9834;3,154
29,1850;0,8460;-0,2141;2,9986;3,123
29,1860;0,6180;-0,5721;2,9953;3,111
29,1940;0,3218;-0,9153;3,0389;3,190
29,1980;0,0525;-1,2027;3,0449;3,274
29,2100;-0,2715;-1,4682;3,0438;3,390
29,2190;-0,5164;-1,7217;2,9751;3,476
29,2300;-0,6396;-2,0038;2,7973;3,500
29,2980;-0,7666;-2,4145;2,4596;3,531
29,3120;-0,9169;-2,7376;2,1547;3,602
29,3140;-1,0313;-2,9870;1,9991;3,739
29,3160;-1,2154;-3,2571;1,8340;3,931
29,3180;-1,5205;-3,5091;1,7317;4,198
29,3220;-1,8537;-3,6440;1,5993;4,390
29,3250;-1,9090;-3,7148;1,4291;4,414
29,3280;-1,7829;-3,8068;1,1360;4,354
29,3300;-1,7127;-3,8727;0,9277;4,335
29,3330;-1,7782;-3,9297;0,8033;4,387
29,3450;-1,3762;-4,1438;0,6514;4,415
29,3510;-0,2437;-4,9684;0,2030;4,979
29,3600;0,4724;-5,8156;-0,1057;5,836
29,3750;-0,0876;-6,1267;0,2112;6,131
29,4080;-1,2652;-5,6885;0,9080;5,898
29,4120;-2,5426;-4,7620;1,9110;5,727
29,4120;-3,3588;-3,9833;2,5764;5,813
29,4810;-3,8632;-3,1104;2,9890;5,791
29,4820;-4,0456;-2,5629;2,9927;5,647
29,4820;-3,4268;-2,2679;2,4347;4,776
29,4830;-2,6920;-2,2368;1,6011;3,849
29,4830;-1,8801;-2,2177;0,6140;2,972
29,4840;-1,0261;-2,2062;-0,5562;2,496
29,4840;-0,1270;-2,2440;-1,2364;2,565
29,4840;0,7001;-2,3706;-1,8151;3,067
29,4990;0,8040;-2,2426;-2,0071;3,115
29,5360;0,5816;-1,8312;-1,9212;2,717
29,5390;0,1336;-1,3120;-1,7055;2,156
29,5400;-0,3171;-0,7263;-1,3578;1,572
29,5530;-0,6490;-0,2132;-1,0086;1,218
29,5540;-0,9416;0,2539;-0,7385;1,223
29,5550;-1,2431;0,6509;-0,5181;1,496
29,5600;-1,2992;0,9167;-0,3717;1,633
29,5830;-1,2600;1,1299;-0,3486;1,728
29,5840;-1,2776;1,2968;-0,5149;1,892
29,6050;-1,3474;1,5270;-0,8185;2,195
29,6090;-1,4502;1,7512;-0,9114;2,450
29,6100;-1,4090;1,9251;-0,7560;2,503
29,6180;-1,3822;2,0629;-0,4994;2,533
29,6690;-1,3555;2,1870;-0,0832;2,574
29,6820;-1,2654;2,3611;0,2564;2,691
29,6840;-1,0684;2,4401;0,6293;2,737
29,6870;-0,7886;2,4683;0,9749;2,769
29,6910;-0,3634;2,4799;1,3895;2,866
29,6940;-0,0266;2,5444;1,6068;3,009
29,6970;0,4052;2,6144;1,7159;3,153
29,7040;0,9760;2,6899;1,7925;3,377
29,7120;1,5306;2,8781;1,8737;3,760
29,7340;1,7892;3,0613;1,9396;4,042
29,7350;2,3677;3,2992;2,0189;4,535
29,7380;2,8747;3,4980;2,1145;4,997
29,7480;3,3491;3,6945;2,2651;5,477
29,7710;3,8698;3,9570;2,4326;6,046
29,7710;4,2899;4,2100;2,6101;6,553
29,7810;4,7107;4,4520;2,8093;7,064
29,8340;5,1366;4,8574;3,0939;7,717
29,8350;5,4149;5,1736;3,1960;8,143
29,8350;5,8867;5,6794;3,2300;8,794
29,8350;6,1173;6,2381;3,1025;9,271
29,8360;6,1872;6,8441;2,8308;9,651
29,8380;6,3948;7,3347;2,4670;10,039
29,8510;6,9414;7,5297;1,9772;10,430
29,8870;7,4404;7,5578;1,7456;10,748
29,8880;7,9273;7,6375;1,8324;11,159
29,8960;8,2868;7,8409;2,2030;11,619
29,8970;9,0795;7,9512;2,7279;12,373
29,9040;10,6554;7,7133;3,1024;13,515
29,9110;12,6803;7,0619;3,3616;14,898
29,9230;13,4681;6,8738;3,4382;15,507
29,9280;13,2314;7,2304;3,7584;15,539
29,9380;11,8689;8,0044;3,9823;14,859
29,9560;9,9758;8,9852;3,7386;13,937
29,9570;8,3367;9,7634;3,0027;13,185
29,9700;6,9874;9,9671;2,4609;12,419
29,9790;6,4030;9,7690;2,1567;11,878
29,9890;6,0536;9,2349;1,9096;11,206
29,9990;6,0628;8,4185;1,9315;10,553
30,0170;6,1454;7,5260;2,1528;9,952
30,0220;6,1436;6,6018;2,4834;9,354
30,0300;5,7789;5,9838;2,7997;8,777
30,0440;5,2216;5,6451;2,9008;8,219
30,0490;4,3583;5,4281;2,8416;7,519
30,1190;3,6844;5,2889;2,6631;6,974
30,1330;3,3567;5,3003;2,4429;6,733
30,1390;3,2875;5,4733;2,2764;6,778
30,1420;3,5412;5,7871;1,9648;7,063
30,1440;3,6027;5,8759;1,6587;7,089
30,1450;3,6708;5,9766;1,2712;7,128
30,1470;3,6820;5,9908;0,8634;7,085
30,1480;3,7169;5,9931;0,5040;7,070
30,1500;3,7207;5,8822;0,3631;6,970
30,1560;3,6385;5,6070;0,2964;6,691
30,1620;3,4622;5,2563;0,4062;6,307
30,1700;3,2229;4,8422;0,7072;5,860
30,2050;3,0534;4,4016;1,0836;5,465
30,2050;2,9160;3,9585;1,3692;5,104
30,2130;2,8384;3,4497;1,5308;4,722
30,2130;2,8797;2,9514;1,7988;4,499
30,2200;2,8092;2,4900;2,1009;4,302
30,2290;2,6703;2,0154;2,4094;4,123
30,2480;2,5608;1,5553;2,6737;4,016
30,2500;2,5034;1,1181;2,9022;3,992
30,2590;2,4320;0,6107;3,1198;4,003
30,2690;2,1687;0,0572;3,2701;3,924
30,3150;1,8906;-0,3768;3,3390;3,856
30,3150;1,5227;-0,8203;3,3791;3,796
30,3150;1,1092;-1,2383;3,4376;3,818
30,3160;0,8131;-1,5881;3,4440;3,879
30,3220;0,7734;-1,9393;3,4902;4,067
30,3360;0,7871;-2,3534;3,3904;4,201
30,3430;0,7877;-2,7071;3,2300;4,287
30,3490;0,7556;-3,0381;2,8672;4,245
30,3710;0,6591;-3,3836;2,5473;4,286
30,3720;0,4905;-3,6531;2,3720;4,383
30,4160;0,0840;-3,8073;2,1626;4,379
30,4160;-0,3480;-3,8458;1,9745;4,337
30,4170;-0,4424;-3,9510;1,8516;4,386
30,4170;-0,5881;-3,8756;1,7806;4,305
30,4230;-0,8869;-3,6646;1,7645;4,163
30,4290;-1,1052;-3,4545;1,6905;4,002
30,4380;-0,3939;-3,7071;1,6198;4,065
30,4650;1,2256;-5,0645;1,1263;5,331
30,4680;1,6037;-5,9077;0,9064;6,188
30,4700;0,9569;-6,1321;1,0379;6,292
30,4820;-1,0918;-5,6383;1,1907;5,865
30,4890;-3,0155;-4,8274;1,5137;5,890
30,4980;-4,4646;-3,8285;2,1037;6,246
30,5170;-4,8098;-3,0372;2,7491;6,318
30,5220;-4,7106;-2,8868;2,8709;6,226
30,5280;-4,7159;-2,8014;2,7955;6,156
30,5380;-3,6582;-3,1626;2,8309;5,603
30,5770;-3,4974;-3,3192;2,5850;5,471
30,5860;-3,4989;-3,3145;2,2278;5,310
30,5860;-3,3753;-3,1858;1,8868;5,010
30,5860;-3,1884;-2,9133;1,7847;4,673
30,5890;-2,9230;-2,4955;1,7833;4,237
30,6080;-2,6404;-2,0974;1,6226;3,742
30,6140;-2,4192;-1,6523;1,2606;3,189
30,6190;-2,2925;-1,2206;0,7391;2,700
30,6450;-2,3559;-0,7404;0,0257;2,470
30,6490;-2,5213;-0,4440;-0,5381;2,616
30,6500;-2,7244;-0,1043;-1,2208;2,987
30,6620;-2,9006;0,1687;-1,9541;3,501
30,6750;-2,8965;0,3967;-2,5503;3,880
30,6800;-2,8727;0,5178;-2,9806;4,172
30,6910;-2,7980;0,5503;-3,1294;4,234
30,7110;-2,8020;0,5202;-2,8639;4,040
30,7120;-2,7842;0,5146;-2,0362;3,488
30,7230;-2,7370;0,5065;-0,9010;2,926
30,7330;-2,7440;0,4989;-0,2320;2,799
30,7390;-2,6251;0,5181;0,2073;2,684
30,8110;-2,2976;0,5504;0,6838;2,460
30,8510;-1,9090;0,6668;1,0560;2,281
30,8530;-1,3067;0,8110;1,5387;2,175
30,8550;-0,5425;0,9682;2,0011;2,288
30,8570;0,5252;1,2226;2,5381;2,866
30,8590;1,3082;1,5267;2,9157;3,542
30,8600;2,2322;1,9518;3,2426;4,394
30,8620;2,8729;2,3972;3,4341;5,079
30,8640;3,4231;2,9102;3,5884;5,750
30,8670;3,8904;3,4695;3,3741;6,209
30,8680;4,4331;4,0045;2,9127;6,646
30,8680;4,9270;4,5004;2,5105;7,130
30,8810;5,3652;5,1069;2,1948;7,726
30,8810;5,7878;5,5878;2,0644;8,306
30,9240;6,2349;6,0791;2,0634;8,949
30,9250;6,6426;6,5679;2,1398;9,583
30,9250;6,9523;7,0370;2,0787;10,108
30,9850;7,1746;7,6027;1,8997;10,625
30,9960;7,5548;8,2760;1,5295;11,310
31,0000;8,1601;8,7307;1,2048;12,011
31,0030;8,8749;9,0777;0,9611;12,732
31,0060;9,4130;9,3440;0,8443;13,290
31,0110;9,9027;9,4998;0,9600;13,756
31,0140;10,8617;9,4995;1,2379;14,483
31,0170;12,8377;8,8464;1,6854;15,681
31,0220;13,9551;8,3865;1,9725;16,400
31,0240;14,6305;8,0382;2,2509;16,844
31,0280;14,5738;8,1421;2,6523;16,903
31,0510;13,5048;8,6547;2,7607;16,276
31,0510;11,2800;9,5421;2,6686;15,014
31,0520;11,2876;9,5474;2,6584;15,021
31,0790;7,9638;10,4578;1,6490;13,248
31,0800;7,0626;10,2246;1,2235;12,487
31,0910;6,6171;9,5965;1,0410;11,703
31,0980;6,6472;8,5651;1,1530;10,903
31,1050;6,8179;7,4432;1,4736;10,201
31,1100;6,5956;6,2519;2,1009;9,328
31,1210;6,1592;5,6920;2,4608;8,740
31,1350;5,1790;5,2500;2,7306;7,864
31,1390;4,1487;5,1311;2,8698;7,196
31,1670;3,3295;5,2371;2,8657;6,836
31,1670;2,8263;5,4221;2,8958;6,766
31,1940;2,6694;5,6960;2,9126;6,932
31,2070;2,7382;5,8051;2,6725;6,953
31,2080;2,8730;5,8221;2,1176;6,829
31,2110;2,9797;5,8483;1,4056;6,712
31,2140;3,0110;5,8650;0,8980;6,654
31,2210;3,0356;5,8225;0,3102;6,574
31,2330;2,9773;5,7198;-0,2842;6,455
31,2410;2,9309;5,5814;-0,5571;6,329
31,2890;2,8542;5,3526;-0,6519;6,101
31,2900;2,7648;5,0124;-0,5404;5,750
31,2900;2,7676;4,5788;-0,3185;5,360
31,2900;2,7587;4,0374;0,0479;4,890
31,2910;2,7240;3,3988;0,4538;4,379
31,3040;2,6796;2,8830;0,7489;4,007
31,3100;2,6190;2,3000;1,0044;3,627
31,3200;2,5067;1,7483;1,2641;3,307
31,3290;2,3929;1,2254;1,5460;3,101
31,3450;2,2246;0,7331;1,8207;2,967
31,3730;1,9778;0,2345;2,0812;2,881
31,3730;1,7931;-0,1770;2,2935;2,917
31,3730;1,6454;-0,6191;2,4411;3,008
31,3790;1,4846;-1,0819;2,5896;3,175
31,3880;1,1718;-1,5554;2,6414;3,282
31,4010;0,7266;-1,8635;2,7422;3,394
31,4100;0,1852;-2,0949;2,7620;3,472
31,4190;-0,0662;-2,3753;2,7615;3,643
31,4280;-0,1693;-2,7071;2,6852;3,817
31,4550;-0,3000;-2,9848;2,5677;3,949
31,4570;-0,4301;-3,2265;2,3773;4,031
31,4900;-0,7220;-3,4654;2,0263;4,079
31,4970;-1,0471;-3,5886;1,7664;4,135
31,5000;-1,0617;-3,7842;1,5432;4,222
31,5010;-1,0762;-4,1269;1,2506;4,444
31,5010;-1,3665;-4,3923;0,8991;4,687
31,5100;-1,8755;-4,5301;0,5684;4,936
31,5200;-2,4599;-4,6700;0,2116;5,283
31,5360;-1,9681;-5,2788;0,0911;5,635
31,5420;-0,9517;-6,1988;0,0180;6,271
31,5540;-0,2161;-7,0878;0,2134;7,094
31,5960;-0,4559;-7,2577;0,7269;7,308
31,6060;-1,7492;-6,7479;0,9211;7,031
31,6100;-3,1522;-6,0307;0,9514;6,871
31,6140;-4,7266;-5,1548;1,2338;7,102
31,6270;-5,5544;-4,6045;1,5564;7,381
31,6270;-6,0326;-4,1137;2,1459;7,610
31,6280;-5,7443;-3,9874;2,6394;7,474
31,6290;-4,7610;-4,0565;3,0791;6,972
31,6400;-3,8762;-3,8677;2,9699;6,229
31,6610;-2,7407;-3,6586;2,4228;5,174
31,6610;-1,9506;-3,4531;2,0753;4,476
31,6690;-0,9791;-2,9909;1,8019;3,626
31,6880;-0,2690;-2,4471;1,5969;2,934
31,6910;0,3951;-1,6635;1,0793;2,022
31,7020;0,7350;-0,8714;0,3437;1,191
31,7100;0,5770;-0,0508;-1,1060;1,249
31,7300;0,2468;0,5506;-2,2606;2,340
31,7410;-0,0955;1,0199;-3,4871;3,634
31,7430;-0,4696;1,3966;-4,4330;4,671
31,7520;-0,6857;1,7295;-4,7415;5,093
31,7650;-0,7024;1,9746;-4,6263;5,079
31,8100;-0,3721;2,0766;-4,0261;4,545
31,8110;-0,1275;2,1267;-3,4901;4,089
31,8110;-0,0765;2,1573;-2,8564;3,580
31,8110;-0,1493;2,2489;-1,9695;2,993
31,8120;-0,0891;2,4745;-1,4018;2,845
31,8270;0,0174;2,7049;-0,8959;2,849
31,8300;0,1284;2,8304;-0,6908;2,916
31,8390;0,2238;2,8840;-0,5771;2,950
31,8500;0,4505;2,9086;-0,3331;2,962
31,8620;0,7136;2,8351;0,0762;2,924
31,8720;1,0365;2,8166;0,6332;3,067
31,8790;1,4960;2,8865;1,1275;3,441
31,8900;2,3151;3,1098;1,5756;4,185
31,8990;2,9261;3,3269;1,7381;4,759
31,9080;3,6886;3,5612;1,7731;5,425
31,9230;4,3518;3,9176;1,7483;6,111
31,9290;5,0026;4,3059;1,7230;6,822
31,9390;5,5491;4,6595;1,6504;7,431
31,9530;6,0469;5,1911;1,4562;8,101
31,9590;6,3302;5,6547;1,2298;8,577
32,0080;6,5248;6,2179;0,8970;9,058
32,0100;6,7498;6,7551;0,5080;9,563
32,0120;6,9453;7,3102;0,2591;10,087
32,0140;7,0625;7,9404;0,0130;10,627
32,0150;7,2469;8,7969;-0,2057;11,399
32,0210;7,6334;9,3662;-0,3781;12,089
32,0290;8,4013;9,8625;-0,5521;12,967
32,0390;9,2250;10,1970;-0,6452;13,766
32,0490;9,9172;10,3737;-0,6217;14,365
32,0620;10,5819;10,4356;-0,3104;14,865
32,1020;12,0719;9,8085;0,1973;15,556
32,1030;13,5410;8,9957;0,6246;16,269
32,1030;14,4170;8,1424;1,0835;16,593
32,1030;14,2292;7,6887;1,5809;16,251
32,1090;13,5070;7,7876;2,5433;15,797
32,1260;11,8158;8,1771;3,0443;14,688
32,1300;9,2699;9,0481;2,9070;13,276
32,1440;7,7299;9,5655;2,5394;12,558
32,1500;6,5160;9,7614;2,4244;11,984
32,1630;6,0469;9,4348;2,4703;11,475
32,2100;6,1579;8,7069;2,6312;10,984
32,2130;6,4147;7,8258;3,0075;10,556
32,2150;6,3333;6,8615;3,3989;9,937
32,2160;6,0340;6,3144;3,4558;9,393
32,2210;5,5390;5,8046;3,3344;8,689
32,2230;5,0342;5,6120;3,1420;8,168
32,2280;4,4986;5,5777;2,6798;7,650
32,2420;4,1445;5,6453;2,0381;7,294
32,2510;4,0576;5,8319;1,3316;7,228
32,2610;4,1448;5,9475;1,0318;7,322
32,2710;4,1593;6,0364;0,7260;7,366
32,2830;4,0977;6,1074;0,3806;7,364
32,3120;4,0392;6,1241;-0,0129;7,336
32,3130;3,9572;6,0714;-0,3668;7,256
32,3130;3,8620;5,8914;-0,5712;7,068
32,3200;3,7530;5,6172;-0,5938;6,782
32,3280;3,5880;5,2559;-0,4204;6,378
32,3410;3,3822;4,7901;0,0303;5,864
32,3490;3,2467;4,3468;0,4349;5,443
32,3620;3,1344;3,7942;0,7706;4,981
32,3770;2,9856;3,1751;1,0297;4,478
32,3790;2,8233;2,7043;1,2771;4,113
32,4070;2,5962;2,2010;1,6687;3,791
32,4090;2,4280;1,7143;1,9824;3,573
32,4110;2,3223;1,1956;2,3474;3,512
32,4220;2,1024;0,7178;2,6459;3,455
32,4320;1,7441;0,2560;2,9323;3,421
32,4430;1,5424;-0,0834;3,0504;3,419
32,4490;1,1914;-0,5364;3,1321;3,394
32,4600;0,9099;-0,9502;3,0597;3,331
32,4680;0,7011;-1,3007;2,7096;3,086
32,4870;0,4719;-1,6891;2,2159;2,826
32,4910;0,0287;-2,1911;1,4180;2,610
32,4990;-0,3396;-2,5889;0,9552;2,780
32,5160;-0,7245;-3,0476;0,7021;3,210
32,5210;-1,1858;-3,6046;0,5515;3,834
32,5290;-1,6448;-4,1642;0,4218;4,497
32,5400;-2,3957;-4,7994;0,2265;5,369
32,5500;-3,4917;-5,1679;0,0631;6,237
32,5610;-4,0909;-5,2683;0,1234;6,671
32,5730;-4,3629;-5,1807;0,3468;6,782
32,5800;-3,9855;-5,0425;0,4697;6,445
32,5890;-3,3747;-5,0099;0,4891;6,060
32,5990;-3,0942;-4,9181;0,3463;5,821
32,6100;-2,9622;-4,8513;0,0454;5,684
32,6190;-2,4373;-5,2271;-0,2686;5,774
32,6280;-1,6183;-5,9127;-0,6064;6,160
32,6390;-1,2214;-6,3482;-0,6195;6,494
32,6480;-1,6308;-6,0773;-0,2614;6,298
32,6590;-2,6201;-5,2958;0,2787;5,915
32,6690;-3,6514;-4,1795;1,1857;5,675
32,7020;-3,8607;-3,3786;1,9190;5,477
32,7050;-3,5001;-2,5579;2,7397;5,128
32,7150;-2,6317;-2,1247;3,1186;4,601
32,7160;-1,6770;-1,7973;2,8384;3,755
32,7200;-0,7157;-1,4664;2,2275;2,761
32,7310;0,3801;-1,1727;1,4952;1,938
32,7430;1,0781;-0,7884;1,0873;1,722
32,7500;1,8122;-0,3846;0,7247;1,989
32,7640;2,2163;0,1022;0,3859;2,252
32,7890;2,5247;0,8206;-0,0988;2,657
32,7890;2,6197;1,5091;-0,7625;3,118
32,7910;2,3238;2,3077;-1,7933;3,734
32,7990;2,0844;2,8514;-2,6015;4,387
32,8150;1,7373;3,3805;-3,4926;5,162
32,8180;1,2861;3,8436;-4,1898;5,829
32,8280;0,9126;4,1828;-4,3111;6,076
32,8410;0,6800;4,3719;-3,8692;5,878
32,8490;0,5563;4,3057;-2,7450;5,136
32,8600;0,6190;4,1163;-1,6866;4,491
32,8710;0,4862;3,9610;-0,8472;4,080
32,8870;0,2593;3,9438;-0,3271;3,966
32,9290;0,0133;3,9668;-0,1293;3,969
32,9300;-0,0164;3,9965;0,0310;3,997
32,9300;0,3416;4,0530;0,4022;4,087
32,9300;0,6537;4,1823;0,7771;4,304
32,9310;1,0024;4,2581;1,1516;4,524
32,9420;1,3129;4,2885;1,3944;4,697
32,9490;1,6360;4,2620;1,6487;4,854
32,9600;1,8556;4,3046;1,7791;5,014
32,9710;2,3005;4,4077;1,9118;5,327
32,9830;2,7209;4,5704;1,9975;5,682
32,9920;3,4270;4,9191;2,1412;6,366
33,0010;4,0823;5,3433;2,2146;7,080
33,0290;4,5971;5,8100;2,0129;7,677
33,0320;4,8541;6,1083;1,8158;8,011
33,0340;5,1574;6,5395;1,5290;8,468
33,0480;5,4974;6,8852;1,4254;8,925
33,0510;5,8907;7,2851;1,3223;9,462
33,0600;6,2396;7,6797;1,1350;9,960
33,0690;6,4633;8,0323;0,8609;10,346
33,0790;6,5389;8,4657;0,6008;10,714
33,1040;6,6382;8,9251;0,4433;11,132
33,1060;6,8897;9,1573;0,3824;11,466
33,1100;7,2993;9,3248;0,3017;11,846
33,1190;7,8394;9,3889;0,3189;12,236
33,1290;8,4394;9,4452;0,3529;12,671
33,1420;8,9473;9,4839;0,4613;13,046
33,1510;9,9178;9,3467;0,6122;13,642
33,1600;10,9269;8,9779;0,6768;14,158
33,1690;11,9040;8,3675;0,9255;14,580
33,1800;12,2199;7,9900;1,3235;14,660
33,1890;12,1522;7,9503;1,9473;14,652
33,2260;11,4947;8,2502;2,4826;14,365
33,2300;10,2546;8,9271;2,7870;13,879
33,2320;9,4504;9,3666;2,5850;13,555
33,2340;8,5023;9,6978;2,0381;13,057
33,2410;7,9404;9,8365;1,5971;12,742
33,2500;7,8817;9,6862;1,0564;12,532
33,2730;8,0751;9,1547;0,5737;12,221
33,2760;8,2304;8,2800;0,2357;11,677
33,2800;8,0219;7,6377;0,1303;11,077
33,3130;7,6586;7,0280;0,1102;10,395
33,3140;7,0451;6,5005;0,2431;9,589
33,3140;6,3849;6,2461;0,5378;8,948
33,3210;5,6662;6,0996;0,8210;8,366
33,3310;5,2119;5,9691;0,9373;7,979
33,3400;4,7765;5,7595;0,9293;7,540
33,3490;4,2970;5,5990;0,9589;7,123
33,3610;3,8712;5,2883;1,0021;6,630
33,3710;3,4037;4,9519;1,0983;6,108
33,4030;2,8101;4,6171;1,2423;5,546
